receive_wall_ns,receive_wall_utc,receive_monotonic_ns,elapsed_seconds,source_stamp_sec,source_stamp_nanosec,source_time_ns,source_time_utc,frame_id,sequence,meas_stamp_sec,meas_stamp_nanosec,meas_time_ns,orientation_x,orientation_y,orientation_z,orientation_w,orientation_covariance,gyro_x,gyro_y,gyro_z,gyro_covariance,accel_x,accel_y,accel_z,accel_covariance
1786663930396006851,2026-08-13T23:32:10.396007+00:00,14067471100902,0.806536173,1786663930,346953211,1786663930346953211,2026-08-13T23:32:10.346953+00:00,base_link,,,,,-0.022689996287226677,0.022319506853818893,0.6396644115447998,0.7679950594902039,"[0.0,0.0,0.0,0.0,0.0,0.0,0.0,0.0,0.0]",-0.00022385512306758373,0.0015086357646716282,-0.0009311746652576933,"[0.0,0.0,0.0,0.0,0.0,0.0,0.0,0.0,0.0]",-0.6244692846715449,-0.058090022859070445,9.79730817115903,"[0.0,0.0,0.0,0.0,0.0,0.0,0.0,0.0,0.0]"
1786663930416698696,2026-08-13T23:32:10.416699+00:00,14067491793195,0.827228466,1786663930,363741836,1786663930363741836,2026-08-13T23:32:10.363742+00:00,base_link,,,,,-0.022681420668959618,0.02232123166322708,0.6396647691726685,0.7679949998855591,"[0.0,0.0,0.0,0.0,0.0,0.0,0.0,0.0,0.0]",0.0005970443710088181,-0.002477988430608991,-0.00037310545524458296,"[0.0,0.0,0.0,0.0,0.0,0.0,0.0,0.0,0.0]",-0.6181253224723041,-0.05473559786463156,9.789798818442225,"[0.0,0.0,0.0,0.0,0.0,0.0,0.0,0.0,0.0]"
1786663930441142715,2026-08-13T23:32:10.441143+00:00,14067516237726,0.851672997,1786663930,366393378,1786663930366393378,2026-08-13T23:32:10.366393+00:00,base_link,,,,,-0.022681420668959618,0.02232123166322708,0.6396647691726685,0.7679949998855591,"[0.0,0.0,0.0,0.0,0.0,0.0,0.0,0.0,0.0]",5.332513574562841e-05,-0.0011501082230683613,-0.0019674241692724356,"[0.0,0.0,0.0,0.0,0.0,0.0,0.0,0.0,0.0]",-0.6110171709675342,-0.050395568499481305,9.799463887888193,"[0.0,0.0,0.0,0.0,0.0,0.0,0.0,0.0,0.0]"
1786663930464288949,2026-08-13T23:32:10.464289+00:00,14067539384056,0.874819327,1786663930,384469128,1786663930384469128,2026-08-13T23:32:10.384469+00:00,base_link,,,,,-0.022648829966783524,0.022325024008750916,0.6396657824516296,0.7679949402809143,"[0.0,0.0,0.0,0.0,0.0,0.0,0.0,0.0,0.0]",0.0006065020388634083,-0.002480608679435412,-0.00013516161834139023,"[0.0,0.0,0.0,0.0,0.0,0.0,0.0,0.0,0.0]",-0.6253477480065077,-0.06077500132645946,9.803822667619585,"[0.0,0.0,0.0,0.0,0.0,0.0,0.0,0.0,0.0]"
1786663930485969244,2026-08-13T23:32:10.485969+00:00,14067561064223,0.896499494,1786663930,393176836,1786663930393176836,2026-08-13T23:32:10.393177+00:00,base_link,,,,,-0.022664358839392662,0.022321127355098724,0.6396653652191162,0.7679950594902039,"[0.0,0.0,0.0,0.0,0.0,0.0,0.0,0.0,0.0]",0.003241196563640384,0.0007372646137765062,-0.0001395938700100819,"[0.0,0.0,0.0,0.0,0.0,0.0,0.0,0.0,0.0]",-0.6228275088138878,-0.06350261335917748,9.801004687589407,"[0.0,0.0,0.0,0.0,0.0,0.0,0.0,0.0,0.0]"
1786663930506037748,2026-08-13T23:32:10.506038+00:00,14067581132727,0.916567998,1786663930,411322003,1786663930411322003,2026-08-13T23:32:10.411322+00:00,base_link,,,,,-0.022650130093097687,0.022318849340081215,0.6396656036376953,0.7679952383041382,"[0.0,0.0,0.0,0.0,0.0,0.0,0.0,0.0,0.0]",-0.0015268044269931508,-0.0019526695026178533,0.0012142543850452302,"[0.0,0.0,0.0,0.0,0.0,0.0,0.0,0.0,0.0]",-0.6197410871058702,-0.06146306122243404,9.81412954210043,"[0.0,0.0,0.0,0.0,0.0,0.0,0.0,0.0,0.0]"
1786663930527535969,2026-08-13T23:32:10.527536+00:00,14067602630884,0.938066155,1786663930,429032003,1786663930429032003,2026-08-13T23:32:10.429032+00:00,base_link,,,,,-0.022660940885543823,0.022313570603728294,0.6396653056144714,0.767995297908783,"[0.0,0.0,0.0,0.0,0.0,0.0,0.0,0.0,0.0]",-0.00207670701061127,0.001234913259030572,0.0004017159391765547,"[0.0,0.0,0.0,0.0,0.0,0.0,0.0,0.0,0.0]",-0.623228563895449,-0.060458519255812276,9.79656056766212,"[0.0,0.0,0.0,0.0,0.0,0.0,0.0,0.0,0.0]"
1786663930548666073,2026-08-13T23:32:10.548666+00:00,14067623760892,0.959196163,1786663930,449269295,1786663930449269295,2026-08-13T23:32:10.449269+00:00,base_link,,,,,-0.022669777274131775,0.022308295592665672,0.6396650075912476,0.7679954767227173,"[0.0,0.0,0.0,0.0,0.0,0.0,0.0,0.0,0.0]",8.822715895181378e-05,-0.004610035356508592,0.003856877015551696,"[0.0,0.0,0.0,0.0,0.0,0.0,0.0,0.0,0.0]",-0.6181552061539143,-0.05057111686263233,9.808004921740293,"[0.0,0.0,0.0,0.0,0.0,0.0,0.0,0.0,0.0]"
1786663930569284064,2026-08-13T23:32:10.569284+00:00,14067644379171,0.979814442,1786663930,471120670,1786663930471120670,2026-08-13T23:32:10.471121+00:00,base_link,,,,,-0.022655393928289413,0.0222987849265337,0.6396654844284058,0.7679957747459412,"[0.0,0.0,0.0,0.0,0.0,0.0,0.0,0.0,0.0]",0.0011329887005747078,-0.0019403622654005947,0.002006714767915324,"[0.0,0.0,0.0,0.0,0.0,0.0,0.0,0.0,0.0]",-0.6154256350595504,-0.0611644070694223,9.794440506768225,"[0.0,0.0,0.0,0.0,0.0,0.0,0.0,0.0,0.0]"
1786663930590339418,2026-08-13T23:32:10.590339+00:00,14067665434493,1.000869764,1786663930,491439628,1786663930491439628,2026-08-13T23:32:10.491440+00:00,base_link,,,,,-0.02266572043299675,0.02229783870279789,0.6396650671958923,0.7679958939552307,"[0.0,0.0,0.0,0.0,0.0,0.0,0.0,0.0,0.0]",5.910816469548878e-05,-0.0011528369228883918,-0.0011633893085963428,"[0.0,0.0,0.0,0.0,0.0,0.0,0.0,0.0,0.0]",-0.6325526378840207,-0.06031193212566431,9.798585936009884,"[0.0,0.0,0.0,0.0,0.0,0.0,0.0,0.0,0.0]"
1786663930610535311,2026-08-13T23:32:10.610535+00:00,14067685630482,1.021065753,1786663930,513329211,1786663930513329211,2026-08-13T23:32:10.513329+00:00,base_link,,,,,-0.022698963060975075,0.022306326776742935,0.6396641135215759,0.7679954767227173,"[0.0,0.0,0.0,0.0,0.0,0.0,0.0,0.0,0.0]",0.000312493183198573,0.00018370470245092886,0.0006593802856451113,"[0.0,0.0,0.0,0.0,0.0,0.0,0.0,0.0,0.0]",-0.6239082897879183,-0.07047903737621382,9.801651168799399,"[0.0,0.0,0.0,0.0,0.0,0.0,0.0,0.0,0.0]"
1786663930631847617,2026-08-13T23:32:10.631848+00:00,14067706942756,1.042378027,1786663930,531409920,1786663930531409920,2026-08-13T23:32:10.531410+00:00,base_link,,,,,-0.022701317444443703,0.022326212376356125,0.6396639943122864,0.7679948806762695,"[0.0,0.0,0.0,0.0,0.0,0.0,0.0,0.0,0.0]",0.0005954187114205551,-0.0011496294262356625,0.0019944785309888454,"[0.0,0.0,0.0,0.0,0.0,0.0,0.0,0.0,0.0]",-0.6332639279585331,-0.05579204354842659,9.797404032748936,"[0.0,0.0,0.0,0.0,0.0,0.0,0.0,0.0,0.0]"
1786663930653329870,2026-08-13T23:32:10.653330+00:00,14067728424690,1.063859961,1786663930,553270628,1786663930553270628,2026-08-13T23:32:10.553271+00:00,base_link,,,,,-0.022694367915391922,0.022334963083267212,0.6396642327308655,0.7679946422576904,"[0.0,0.0,0.0,0.0,0.0,0.0,0.0,0.0,0.0]",-0.00023258937793197638,0.0044470769455255636,0.002519932437554764,"[0.0,0.0,0.0,0.0,0.0,0.0,0.0,0.0,0.0]",-0.6082412399807945,-0.05904733728363644,9.801082429000735,"[0.0,0.0,0.0,0.0,0.0,0.0,0.0,0.0,0.0]"
1786663930674070226,2026-08-13T23:32:10.674070+00:00,14067749165333,1.084600604,1786663930,575245086,1786663930575245086,2026-08-13T23:32:10.575245+00:00,base_link,,,,,-0.022719334810972214,0.022329628467559814,0.6396633982658386,0.7679947018623352,"[0.0,0.0,0.0,0.0,0.0,0.0,0.0,0.0,0.0]",5.420030210458201e-05,0.000980087493784444,-0.0004002379367864258,"[0.0,0.0,0.0,0.0,0.0,0.0,0.0,0.0,0.0]",-0.6354235171452164,-0.07343788261523004,9.797010064995288,"[0.0,0.0,0.0,0.0,0.0,0.0,0.0,0.0,0.0]"
1786663930695637149,2026-08-13T23:32:10.695637+00:00,14067770732064,1.106167335,1786663930,595209670,1786663930595209670,2026-08-13T23:32:10.595210+00:00,base_link,,,,,-0.02273128740489483,0.022325098514556885,0.63966304063797,0.7679948210716248,"[0.0,0.0,0.0,0.0,0.0,0.0,0.0,0.0,0.0]",0.0003073835029313087,0.0015159006808718504,-0.0017135674409620141,"[0.0,0.0,0.0,0.0,0.0,0.0,0.0,0.0,0.0]",-0.6185036542654037,-0.05296220868367236,9.798784673452376,"[0.0,0.0,0.0,0.0,0.0,0.0,0.0,0.0,0.0]"
1786663930716803860,2026-08-13T23:32:10.716804+00:00,14067791898967,1.127334238,1786663930,619338378,1786663930619338378,2026-08-13T23:32:10.619339+00:00,base_link,,,,,-0.022741857916116714,0.022323139011859894,0.6396626830101013,0.76799476146698,"[0.0,0.0,0.0,0.0,0.0,0.0,0.0,0.0,0.0]",0.001924657547236046,-7.351085326019917e-05,0.002001626413742726,"[0.0,0.0,0.0,0.0,0.0,0.0,0.0,0.0,0.0]",-0.6255359640549868,-0.07044093842210714,9.794071088933944,"[0.0,0.0,0.0,0.0,0.0,0.0,0.0,0.0,0.0]"
1786663930737484505,2026-08-13T23:32:10.737484+00:00,14067812579612,1.148014883,1786663930,637175836,1786663930637175836,2026-08-13T23:32:10.637176+00:00,base_link,,,,,-0.02274012193083763,0.022328855469822884,0.6396627426147461,0.76799476146698,"[0.0,0.0,0.0,0.0,0.0,0.0,0.0,0.0,0.0]",0.001116404150967997,-0.0003443097008651947,-0.0027743738129482414,"[0.0,0.0,0.0,0.0,0.0,0.0,0.0,0.0,0.0]",-0.6307132936276495,-0.05595947710378095,9.798748433095216,"[0.0,0.0,0.0,0.0,0.0,0.0,0.0,0.0,0.0]"
1786663930758513204,2026-08-13T23:32:10.758513+00:00,14067833608247,1.169043518,1786663930,661254378,1786663930661254378,2026-08-13T23:32:10.661254+00:00,base_link,,,,,-0.02273399569094181,0.02232731692492962,0.6396629214286804,0.7679947018623352,"[0.0,0.0,0.0,0.0,0.0,0.0,0.0,0.0,0.0]",-0.0012800788066426344,0.00044898005902797134,-0.0022513500408770206,"[0.0,0.0,0.0,0.0,0.0,0.0,0.0,0.0,0.0]",-0.6205692084930837,-0.06710749685019254,9.794829798346758,"[0.0,0.0,0.0,0.0,0.0,0.0,0.0,0.0,0.0]"
1786663930778847845,2026-08-13T23:32:10.778848+00:00,14067853942952,1.189378223,1786663930,679324295,1786663930679324295,2026-08-13T23:32:10.679324+00:00,base_link,,,,,-0.022731343284249306,0.022318679839372635,0.6396629810333252,0.7679951190948486,"[0.0,0.0,0.0,0.0,0.0,0.0,0.0,0.0,0.0]",0.0008719651040846661,-0.0035438510375886533,-0.001977913486956525,"[0.0,0.0,0.0,0.0,0.0,0.0,0.0,0.0,0.0]",-0.6133516783297062,-0.05308163837883621,9.795388601273297,"[0.0,0.0,0.0,0.0,0.0,0.0,0.0,0.0,0.0]"
1786663930799392242,2026-08-13T23:32:10.799392+00:00,14067874487349,1.20992262,1786663930,701266961,1786663930701266961,2026-08-13T23:32:10.701267+00:00,base_link,,,,,-0.02271845005452633,0.022305961698293686,0.6396633386611938,0.7679954767227173,"[0.0,0.0,0.0,0.0,0.0,0.0,0.0,0.0,0.0]",-0.002342754722915584,0.001770116831899702,0.004407489472040457,"[0.0,0.0,0.0,0.0,0.0,0.0,0.0,0.0,0.0]",-0.6271477101005614,-0.06268239671720657,9.799332954984903,"[0.0,0.0,0.0,0.0,0.0,0.0,0.0,0.0,0.0]"
1786663930819470730,2026-08-13T23:32:10.819471+00:00,14067894565805,1.230001076,1786663930,721386711,1786663930721386711,2026-08-13T23:32:10.721387+00:00,base_link,,,,,-0.022715313360095024,0.022306108847260475,0.6396634578704834,0.7679954767227173,"[0.0,0.0,0.0,0.0,0.0,0.0,0.0,0.0,0.0]",0.0008618068610165601,-0.0014080734755311777,-0.0006506834652289025,"[0.0,0.0,0.0,0.0,0.0,0.0,0.0,0.0,0.0]",-0.6202279938399792,-0.06767124537990894,9.800480371454357,"[0.0,0.0,0.0,0.0,0.0,0.0,0.0,0.0,0.0]"
1786663930840438870,2026-08-13T23:32:10.840439+00:00,14067915533977,1.250969248,1786663930,743182961,1786663930743182961,2026-08-13T23:32:10.743183+00:00,base_link,,,,,-0.02272043749690056,0.022306114435195923,0.6396632790565491,0.7679955959320068,"[0.0,0.0,0.0,0.0,0.0,0.0,0.0,0.0,0.0]",-0.0012552817600318244,-0.003287779776399128,-0.0011855471209549922,"[0.0,0.0,0.0,0.0,0.0,0.0,0.0,0.0,0.0]",-0.626019144462049,-0.052839701115433124,9.801883808511494,"[0.0,0.0,0.0,0.0,0.0,0.0,0.0,0.0,0.0]"
1786663930863290493,2026-08-13T23:32:10.863290+00:00,14067938385632,1.273820903,1786663930,763276461,1786663930763276461,2026-08-13T23:32:10.763277+00:00,base_link,,,,,-0.022717496380209923,0.02232539653778076,0.6396633982658386,0.7679949402809143,"[0.0,0.0,0.0,0.0,0.0,0.0,0.0,0.0,0.0]",6.104045191316613e-05,-0.0011419991056085303,-0.003313691761642084,"[0.0,0.0,0.0,0.0,0.0,0.0,0.0,0.0,0.0]",-0.6247156606480478,-0.05509415637818165,9.798860661298036,"[0.0,0.0,0.0,0.0,0.0,0.0,0.0,0.0,0.0]"
1786663930883649236,2026-08-13T23:32:10.883649+00:00,14067958744215,1.294179486,1786663930,783299086,1786663930783299086,2026-08-13T23:32:10.783299+00:00,base_link,,,,,-0.022712573409080505,0.02232459932565689,0.639663577079773,0.7679949998855591,"[0.0,0.0,0.0,0.0,0.0,0.0,0.0,0.0,0.0]",0.0026876132781348287,0.003933549267290482,0.005458641234889333,"[0.0,0.0,0.0,0.0,0.0,0.0,0.0,0.0,0.0]",-0.6210813957989215,-0.07548738989040721,9.78687854708135,"[0.0,0.0,0.0,0.0,0.0,0.0,0.0,0.0,0.0]"
1786663930904187700,2026-08-13T23:32:10.904188+00:00,14067979282743,1.314718014,1786663930,805489961,1786663930805489961,2026-08-13T23:32:10.805490+00:00,base_link,,,,,-0.022740062326192856,0.02230660244822502,0.6396626234054565,0.7679954767227173,"[0.0,0.0,0.0,0.0,0.0,0.0,0.0,0.0,0.0]",5.182874935163669e-05,0.00044848263437172984,0.0035744753095299634,"[0.0,0.0,0.0,0.0,0.0,0.0,0.0,0.0,0.0]",-0.6122475530127063,-0.07965874359118752,9.803606979042291,"[0.0,0.0,0.0,0.0,0.0,0.0,0.0,0.0,0.0]"
1786663930925035791,2026-08-13T23:32:10.925036+00:00,14068000130834,1.335566105,1786663930,824992836,1786663930824992836,2026-08-13T23:32:10.824993+00:00,base_link,,,,,-0.02273341454565525,0.022280704230070114,0.6396627426147461,0.7679963111877441,"[0.0,0.0,0.0,0.0,0.0,0.0,0.0,0.0,0.0]",0.0011347663085874706,-0.0032728374661189124,-0.005441136672357216,"[0.0,0.0,0.0,0.0,0.0,0.0,0.0,0.0,0.0]",-0.6107849331142381,-0.0528422583987005,9.78988298959434,"[0.0,0.0,0.0,0.0,0.0,0.0,0.0,0.0,0.0]"
1786663930947157295,2026-08-13T23:32:10.947157+00:00,14068022252434,1.357687705,1786663930,847661753,1786663930847661753,2026-08-13T23:32:10.847662+00:00,base_link,,,,,-0.022714251652359962,0.022273357957601547,0.6396632790565491,0.7679966688156128,"[0.0,0.0,0.0,0.0,0.0,0.0,0.0,0.0,0.0]",0.00296869978829401,0.0007290151211996467,-0.00012280239876838152,"[0.0,0.0,0.0,0.0,0.0,0.0,0.0,0.0,0.0]",-0.6119425421841442,-0.05643189865481108,9.802370715245605,"[0.0,0.0,0.0,0.0,0.0,0.0,0.0,0.0,0.0]"
1786663930969292589,2026-08-13T23:32:10.969293+00:00,14068044387408,1.379822679,1786663930,869414253,1786663930869414253,2026-08-13T23:32:10.869414+00:00,base_link,,,,,-0.022718142718076706,0.022266188636422157,0.6396631598472595,0.7679968476295471,"[0.0,0.0,0.0,0.0,0.0,0.0,0.0,0.0,0.0]",0.0005853964872245303,-8.410042959665438e-05,0.0006621658117051985,"[0.0,0.0,0.0,0.0,0.0,0.0,0.0,0.0,0.0]",-0.6170783707026392,-0.06343758529894986,9.793379015016555,"[0.0,0.0,0.0,0.0,0.0,0.0,0.0,0.0,0.0]"
1786663930991678605,2026-08-13T23:32:10.991679+00:00,14068066772144,1.402207415,1786663930,887098878,1786663930887098878,2026-08-13T23:32:10.887099+00:00,base_link,,,,,-0.02271607331931591,0.02226976491510868,0.6396632194519043,0.7679967284202576,"[0.0,0.0,0.0,0.0,0.0,0.0,0.0,0.0,0.0]",0.005106041307306094,-0.0008599826996995859,-0.0011918761596959712,"[0.0,0.0,0.0,0.0,0.0,0.0,0.0,0.0,0.0]",-0.6220265676945448,-0.06693027255318593,9.794534030270576,"[0.0,0.0,0.0,0.0,0.0,0.0,0.0,0.0,0.0]"
1786663931011849306,2026-08-13T23:32:11.011849+00:00,14068086944413,1.422379684,1786663930,913097170,1786663930913097170,2026-08-13T23:32:10.913097+00:00,base_link,,,,,-0.022710910066962242,0.022276941686868668,0.6396633982658386,0.7679964900016785,"[0.0,0.0,0.0,0.0,0.0,0.0,0.0,0.0,0.0]",0.0019211975184135444,-0.0011342386177816337,-0.0038495163919997992,"[0.0,0.0,0.0,0.0,0.0,0.0,0.0,0.0,0.0]",-0.6334142231494188,-0.05798835258288309,9.794646842995286,"[0.0,0.0,0.0,0.0,0.0,0.0,0.0,0.0,0.0]"
1786663931033040043,2026-08-13T23:32:11.033040+00:00,14068108135150,1.443570421,1786663930,933228878,1786663930933228878,2026-08-13T23:32:10.933229+00:00,base_link,,,,,-0.022699842229485512,0.022288532927632332,0.639663815498352,0.7679962515830994,"[0.0,0.0,0.0,0.0,0.0,0.0,0.0,0.0,0.0]",-0.0034057029370070206,0.0014872371092682466,-0.0017297990697094244,"[0.0,0.0,0.0,0.0,0.0,0.0,0.0,0.0,0.0]",-0.6239388310566544,-0.05750033160392195,9.805218505892157,"[0.0,0.0,0.0,0.0,0.0,0.0,0.0,0.0,0.0]"
1786663931054955588,2026-08-13T23:32:11.054955+00:00,14068130050567,1.465485838,1786663930,955225503,1786663930955225503,2026-08-13T23:32:10.955226+00:00,base_link,,,,,-0.022700374945998192,0.022271426394581795,0.639663815498352,0.7679966688156128,"[0.0,0.0,0.0,0.0,0.0,0.0,0.0,0.0,0.0]",0.0018931750300215662,0.002595704572054022,-0.0011809110360339228,"[0.0,0.0,0.0,0.0,0.0,0.0,0.0,0.0,0.0]",-0.6176039289467037,-0.06082308281846344,9.801897837036847,"[0.0,0.0,0.0,0.0,0.0,0.0,0.0,0.0,0.0]"
1786663931076520903,2026-08-13T23:32:11.076521+00:00,14068151615947,1.487051218,1786663930,977287170,1786663930977287170,2026-08-13T23:32:10.977287+00:00,base_link,,,,,-0.02269960194826126,0.022291604429483414,0.639663815498352,0.7679961323738098,"[0.0,0.0,0.0,0.0,0.0,0.0,0.0,0.0,0.0]",0.0008512137736767147,-0.0006088754771552114,-0.00571421523396907,"[0.0,0.0,0.0,0.0,0.0,0.0,0.0,0.0,0.0]",-0.6172338535252958,-0.061195642457902426,9.804795896565913,"[0.0,0.0,0.0,0.0,0.0,0.0,0.0,0.0,0.0]"
1786663931098303025,2026-08-13T23:32:11.098303+00:00,14068173398004,1.508833275,1786663930,999240045,1786663930999240045,2026-08-13T23:32:10.999240+00:00,base_link,,,,,-0.022693470120429993,0.0222990233451128,0.6396641135215759,0.7679958343505859,"[0.0,0.0,0.0,0.0,0.0,0.0,0.0,0.0,0.0]",0.000616022709723279,-0.003547142278174098,0.0030841608252652046,"[0.0,0.0,0.0,0.0,0.0,0.0,0.0,0.0,0.0]",-0.6108312199413776,-0.0527270756203914,9.809182148826121,"[0.0,0.0,0.0,0.0,0.0,0.0,0.0,0.0,0.0]"
1786663931120736683,2026-08-13T23:32:11.120737+00:00,14068195831726,1.531266997,1786663931,17263295,1786663931017263295,2026-08-13T23:32:11.017263+00:00,base_link,,,,,-0.022678324952721596,0.022296378389000893,0.6396645903587341,0.7679959535598755,"[0.0,0.0,0.0,0.0,0.0,0.0,0.0,0.0,0.0]",-0.0012764899109919952,0.00043772192912929105,0.0025377626131420344,"[0.0,0.0,0.0,0.0,0.0,0.0,0.0,0.0,0.0]",-0.6327269715376198,-0.0652597911908524,9.795217920881509,"[0.0,0.0,0.0,0.0,0.0,0.0,0.0,0.0,0.0]"
1786663931145935317,2026-08-13T23:32:11.145935+00:00,14068221029336,1.556464607,1786663931,45320753,1786663931045320753,2026-08-13T23:32:11.045321+00:00,base_link,,,,,-0.022674856707453728,0.022290976718068123,0.6396647691726685,0.7679960131645203,"[0.0,0.0,0.0,0.0,0.0,0.0,0.0,0.0,0.0]",0.0016447702397903764,0.000995637857836985,-0.0017165549147356216,"[0.0,0.0,0.0,0.0,0.0,0.0,0.0,0.0,0.0]",-0.6108824386719613,-0.0521743645079201,9.793709854406117,"[0.0,0.0,0.0,0.0,0.0,0.0,0.0,0.0,0.0]"
1786663931166480916,2026-08-13T23:32:11.166481+00:00,14068241576023,1.577011294,1786663931,67331086,1786663931067331086,2026-08-13T23:32:11.067331+00:00,base_link,,,,,-0.022660428658127785,0.02230903133749962,0.6396652460098267,0.7679955363273621,"[0.0,0.0,0.0,0.0,0.0,0.0,0.0,0.0,0.0]",0.001653296906579321,-0.0006099389210709665,0.00014362537965292637,"[0.0,0.0,0.0,0.0,0.0,0.0,0.0,0.0,0.0]",-0.6108565370457246,-0.06008263058154843,9.80720997197032,"[0.0,0.0,0.0,0.0,0.0,0.0,0.0,0.0,0.0]"
1786663931188898992,2026-08-13T23:32:11.188899+00:00,14068263993587,1.599428858,1786663931,89183920,1786663931089183920,2026-08-13T23:32:11.089184+00:00,base_link,,,,,-0.022649260237812996,0.02227526530623436,0.6396656036376953,0.7679966688156128,"[0.0,0.0,0.0,0.0,0.0,0.0,0.0,0.0,0.0]",0.0005979137344593905,-0.0006063783735217742,0.002782576037016495,"[0.0,0.0,0.0,0.0,0.0,0.0,0.0,0.0,0.0]",-0.6290327201295643,-0.06999949653123039,9.792844762009382,"[0.0,0.0,0.0,0.0,0.0,0.0,0.0,0.0,0.0]"
1786663931210228784,2026-08-13T23:32:11.210229+00:00,14068285323955,1.620759226,1786663931,111241795,1786663931111241795,2026-08-13T23:32:11.111242+00:00,base_link,,,,,-0.022661129012703896,0.022285684943199158,0.6396651864051819,0.7679963111877441,"[0.0,0.0,0.0,0.0,0.0,0.0,0.0,0.0,0.0]",0.0013791588021665904,0.00018860355996832548,-0.002516947044375758,"[0.0,0.0,0.0,0.0,0.0,0.0,0.0,0.0,0.0]",-0.6209463712424039,-0.07549504347390029,9.807178407788276,"[0.0,0.0,0.0,0.0,0.0,0.0,0.0,0.0,0.0]"
1786663931230827817,2026-08-13T23:32:11.230828+00:00,14068305922988,1.641358259,1786663931,131374962,1786663931131374962,2026-08-13T23:32:11.131375+00:00,base_link,,,,,-0.022680209949612617,0.022262996062636375,0.6396645903587341,0.7679969072341919,"[0.0,0.0,0.0,0.0,0.0,0.0,0.0,0.0,0.0]",-0.001015001691719978,0.0009638575555201477,-0.0004021212650123837,"[0.0,0.0,0.0,0.0,0.0,0.0,0.0,0.0,0.0]",-0.6240419991701841,-0.06273443743169772,9.792415722942351,"[0.0,0.0,0.0,0.0,0.0,0.0,0.0,0.0,0.0]"
1786663931251183072,2026-08-13T23:32:11.251183+00:00,14068326277891,1.661713162,1786663931,151484212,1786663931151484212,2026-08-13T23:32:11.151484+00:00,base_link,,,,,-0.022668708115816116,0.022269705310463905,0.6396649479866028,0.7679967284202576,"[0.0,0.0,0.0,0.0,0.0,0.0,0.0,0.0,0.0]",-0.001265073688412882,-0.001968094640882809,-0.002785256623086363,"[0.0,0.0,0.0,0.0,0.0,0.0,0.0,0.0,0.0]",-0.6254840877372772,-0.05960602147916797,9.788245743781328,"[0.0,0.0,0.0,0.0,0.0,0.0,0.0,0.0,0.0]"
1786663931272665006,2026-08-13T23:32:11.272665+00:00,14068347760145,1.683195416,1786663931,173055003,1786663931173055003,2026-08-13T23:32:11.173055+00:00,base_link,,,,,-0.02264966070652008,0.02227729745209217,0.6396657228469849,0.7679964900016785,"[0.0,0.0,0.0,0.0,0.0,0.0,0.0,0.0,0.0]",-0.002055501460394351,-0.0032943248068671885,-0.0022504800922592163,"[0.0,0.0,0.0,0.0,0.0,0.0,0.0,0.0,0.0]",-0.6136813486754894,-0.04337506331212353,9.804743289595843,"[0.0,0.0,0.0,0.0,0.0,0.0,0.0,0.0,0.0]"
1786663931294143580,2026-08-13T23:32:11.294143+00:00,14068369238655,1.704673926,1786663931,195256962,1786663931195256962,2026-08-13T23:32:11.195257+00:00,base_link,,,,,-0.02264532260596752,0.022286472842097282,0.6396657824516296,0.7679961919784546,"[0.0,0.0,0.0,0.0,0.0,0.0,0.0,0.0,0.0]",0.0008632113924098193,-0.00221518488543726,-0.0006577262779554012,"[0.0,0.0,0.0,0.0,0.0,0.0,0.0,0.0,0.0]",-0.6304077348098158,-0.07124562870138325,9.790056592595576,"[0.0,0.0,0.0,0.0,0.0,0.0,0.0,0.0,0.0]"
1786663931314853543,2026-08-13T23:32:11.314854+00:00,14068389948714,1.725383985,1786663931,215034295,1786663931215034295,2026-08-13T23:32:11.215034+00:00,base_link,,,,,-0.022656621411442757,0.022301524877548218,0.639665424823761,0.7679957151412964,"[0.0,0.0,0.0,0.0,0.0,0.0,0.0,0.0,0.0]",-0.00020969150782631626,0.0004432354072957237,0.00014792044211507345,"[0.0,0.0,0.0,0.0,0.0,0.0,0.0,0.0,0.0]",-0.6268268075831234,-0.06075809585743118,9.799670808637142,"[0.0,0.0,0.0,0.0,0.0,0.0,0.0,0.0,0.0]"
1786663931334962652,2026-08-13T23:32:11.334963+00:00,14068410057663,1.745492934,1786663931,235274503,1786663931235274503,2026-08-13T23:32:11.235275+00:00,base_link,,,,,-0.02267303690314293,0.022303614765405655,0.639664888381958,0.7679956555366516,"[0.0,0.0,0.0,0.0,0.0,0.0,0.0,0.0,0.0]",-0.0018122367791264743,0.0009647610537259032,0.0003983439455131346,"[0.0,0.0,0.0,0.0,0.0,0.0,0.0,0.0,0.0]",-0.6411582614049315,-0.07201388226067647,9.798660170289873,"[0.0,0.0,0.0,0.0,0.0,0.0,0.0,0.0,0.0]"
1786663931355807831,2026-08-13T23:32:11.355808+00:00,14068430902906,1.766338177,1786663931,254997003,1786663931254997003,2026-08-13T23:32:11.254997+00:00,base_link,,,,,-0.02268444560468197,0.022298142313957214,0.6396645307540894,0.7679957747459412,"[0.0,0.0,0.0,0.0,0.0,0.0,0.0,0.0,0.0]",-0.002342202845197503,0.0004273689229008987,-0.001196728236344122,"[0.0,0.0,0.0,0.0,0.0,0.0,0.0,0.0,0.0]",-0.6189973560664802,-0.05928017335855402,9.79480583294928,"[0.0,0.0,0.0,0.0,0.0,0.0,0.0,0.0,0.0]"
1786663931377162708,2026-08-13T23:32:11.377163+00:00,14068452257687,1.787692958,1786663931,277094253,1786663931277094253,2026-08-13T23:32:11.277094+00:00,base_link,,,,,-0.022682901471853256,0.022314388304948807,0.6396646499633789,0.7679952383041382,"[0.0,0.0,0.0,0.0,0.0,0.0,0.0,0.0,0.0]",3.6322858008705604e-05,0.0023007308731519743,0.00014685225184288321,"[0.0,0.0,0.0,0.0,0.0,0.0,0.0,0.0,0.0]",-0.6300901932932436,-0.050019259700109245,9.799279763492942,"[0.0,0.0,0.0,0.0,0.0,0.0,0.0,0.0,0.0]"
1786663931398763795,2026-08-13T23:32:11.398764+00:00,14068473858710,1.809293981,1786663931,299226503,1786663931299226503,2026-08-13T23:32:11.299227+00:00,base_link,,,,,-0.022674445062875748,0.02231769636273384,0.6396650075912476,0.7679951786994934,"[0.0,0.0,0.0,0.0,0.0,0.0,0.0,0.0,0.0]",0.0029984400676039543,-0.003008479716779767,-0.0006539499987534528,"[0.0,0.0,0.0,0.0,0.0,0.0,0.0,0.0,0.0]",-0.622571122900024,-0.07867400687015615,9.81041665905714,"[0.0,0.0,0.0,0.0,0.0,0.0,0.0,0.0,0.0]"
1786663931420777280,2026-08-13T23:32:11.420777+00:00,14068495872323,1.831307594,1786663931,321353212,1786663931321353212,2026-08-13T23:32:11.321353+00:00,base_link,,,,,-0.022690992802381516,0.022296549752354622,0.6396644711494446,0.7679957151412964,"[0.0,0.0,0.0,0.0,0.0,0.0,0.0,0.0,0.0]",0.0021845647746851536,0.0007243090762850975,0.0014633409601199398,"[0.0,0.0,0.0,0.0,0.0,0.0,0.0,0.0,0.0]",-0.6141675247572362,-0.06661023311885074,9.783698163479565,"[0.0,0.0,0.0,0.0,0.0,0.0,0.0,0.0,0.0]"
1786663931441782568,2026-08-13T23:32:11.441782+00:00,14068516877547,1.852312818,1786663931,343230837,1786663931343230837,2026-08-13T23:32:11.343231+00:00,base_link,,,,,-0.022688915953040123,0.022292708978056908,0.6396644711494446,0.7679958939552307,"[0.0,0.0,0.0,0.0,0.0,0.0,0.0,0.0,0.0]",5.7134915771591926e-05,-0.0011465693917253232,0.0009446092596561261,"[0.0,0.0,0.0,0.0,0.0,0.0,0.0,0.0,0.0]",-0.6150698804244399,-0.06423686875074636,9.80526760573089,"[0.0,0.0,0.0,0.0,0.0,0.0,0.0,0.0,0.0]"
1786663931462774481,2026-08-13T23:32:11.462775+00:00,14068537869556,1.873304827,1786663931,363326670,1786663931363326670,2026-08-13T23:32:11.363327+00:00,base_link,,,,,-0.022665372118353844,0.022282371297478676,0.6396651864051819,0.7679961919784546,"[0.0,0.0,0.0,0.0,0.0,0.0,0.0,0.0,0.0]",0.0016393640747923808,0.0015312312821195945,0.0012098899477568353,"[0.0,0.0,0.0,0.0,0.0,0.0,0.0,0.0,0.0]",-0.6133472944155335,-0.056347307377588,9.789369194853306,"[0.0,0.0,0.0,0.0,0.0,0.0,0.0,0.0,0.0]"
1786663931484286011,2026-08-13T23:32:11.484286+00:00,14068559381150,1.894816421,1786663931,385378420,1786663931385378420,2026-08-13T23:32:11.385378+00:00,base_link,,,,,-0.02266423963010311,0.022271214053034782,0.6396651268005371,0.767996609210968,"[0.0,0.0,0.0,0.0,0.0,0.0,0.0,0.0,0.0]",-0.0010134359792636745,0.0009661780686867719,-0.0012041620708185632,"[0.0,0.0,0.0,0.0,0.0,0.0,0.0,0.0,0.0]",-0.6105068833578378,-0.07643772658491507,9.794197345662116,"[0.0,0.0,0.0,0.0,0.0,0.0,0.0,0.0,0.0]"
1786663931505247272,2026-08-13T23:32:11.505247+00:00,14068580342379,1.91577765,1786663931,405239462,1786663931405239462,2026-08-13T23:32:11.405240+00:00,base_link,,,,,-0.022659538313746452,0.022249437868595123,0.639665424823761,0.7679972052574158,"[0.0,0.0,0.0,0.0,0.0,0.0,0.0,0.0,0.0]",0.0011207498629049776,0.00018510910380702532,0.0009259351428835715,"[0.0,0.0,0.0,0.0,0.0,0.0,0.0,0.0,0.0]",-0.6172532158128917,-0.05905152940156404,9.803089677169918,"[0.0,0.0,0.0,0.0,0.0,0.0,0.0,0.0,0.0]"
1786663931525705938,2026-08-13T23:32:11.525706+00:00,14068600800853,1.936236124,1786663931,429003878,1786663931429003878,2026-08-13T23:32:11.429004+00:00,base_link,,,,,-0.02266787365078926,0.02223491668701172,0.6396650075912476,0.7679977416992188,"[0.0,0.0,0.0,0.0,0.0,0.0,0.0,0.0,0.0]",-0.000737308241244559,-0.0006245290256962765,-0.0006454467386537765,"[0.0,0.0,0.0,0.0,0.0,0.0,0.0,0.0,0.0]",-0.6217214472681284,-0.06392333668901119,9.805137257349491,"[0.0,0.0,0.0,0.0,0.0,0.0,0.0,0.0,0.0]"
1786663931547046833,2026-08-13T23:32:11.547047+00:00,14068622141940,1.957577211,1786663931,451428378,1786663931451428378,2026-08-13T23:32:11.451428+00:00,base_link,,,,,-0.02267688699066639,0.02224746160209179,0.6396647095680237,0.7679973244667053,"[0.0,0.0,0.0,0.0,0.0,0.0,0.0,0.0,0.0]",-0.00048089758306064375,0.000432153347715206,0.0014549864625342797,"[0.0,0.0,0.0,0.0,0.0,0.0,0.0,0.0,0.0]",-0.6162016609333455,-0.05896056774905883,9.795648128992319,"[0.0,0.0,0.0,0.0,0.0,0.0,0.0,0.0,0.0]"
1786663931567138408,2026-08-13T23:32:11.567138+00:00,14068642233483,1.977668754,1786663931,471280087,1786663931471280087,2026-08-13T23:32:11.471280+00:00,base_link,,,,,-0.022661393508315086,0.022248659282922745,0.6396652460098267,0.7679972052574158,"[0.0,0.0,0.0,0.0,0.0,0.0,0.0,0.0,0.0]",-0.0010322143858406353,0.0033701234689476173,-0.0022620666635213373,"[0.0,0.0,0.0,0.0,0.0,0.0,0.0,0.0,0.0]",-0.6324450127910822,-0.0454313154219184,9.789145322969555,"[0.0,0.0,0.0,0.0,0.0,0.0,0.0,0.0,0.0]"
1786663931588334424,2026-08-13T23:32:11.588334+00:00,14068663429499,1.99886477,1786663931,491221920,1786663931491221920,2026-08-13T23:32:11.491222+00:00,base_link,,,,,-0.022664902731776237,0.022256938740611076,0.6396651864051819,0.7679970264434814,"[0.0,0.0,0.0,0.0,0.0,0.0,0.0,0.0,0.0]",-0.00048234580694053703,0.0015043159301300056,-0.0006508932801907602,"[0.0,0.0,0.0,0.0,0.0,0.0,0.0,0.0,0.0]",-0.6150709033377468,-0.06518596333623863,9.799441676056384,"[0.0,0.0,0.0,0.0,0.0,0.0,0.0,0.0,0.0]"
1786663931609242156,2026-08-13T23:32:11.609242+00:00,14068684337007,2.019772278,1786663931,513152337,1786663931513152337,2026-08-13T23:32:11.513152+00:00,base_link,,,,,-0.022660713642835617,0.022248493507504463,0.6396653056144714,0.7679972648620605,"[0.0,0.0,0.0,0.0,0.0,0.0,0.0,0.0,0.0]",0.0019163510333633858,0.00019385423302914053,0.001993135767247822,"[0.0,0.0,0.0,0.0,0.0,0.0,0.0,0.0,0.0]",-0.6221713829927146,-0.061143510411866005,9.798989840635656,"[0.0,0.0,0.0,0.0,0.0,0.0,0.0,0.0,0.0]"
1786663931629728370,2026-08-13T23:32:11.629728+00:00,14068704823381,2.040258652,1786663931,531046670,1786663931531046670,2026-08-13T23:32:11.531047+00:00,base_link,,,,,-0.02265443280339241,0.022237742319703102,0.6396654844284058,0.7679976224899292,"[0.0,0.0,0.0,0.0,0.0,0.0,0.0,0.0,0.0]",-0.0020768340569191314,0.0006992156749807187,-0.0006546369850834767,"[0.0,0.0,0.0,0.0,0.0,0.0,0.0,0.0,0.0]",-0.6285755509465932,-0.06681292978383134,9.799443429622054,"[0.0,0.0,0.0,0.0,0.0,0.0,0.0,0.0,0.0]"
1786663931651385515,2026-08-13T23:32:11.651386+00:00,14068726480334,2.061915605,1786663931,555104212,1786663931555104212,2026-08-13T23:32:11.555104+00:00,base_link,,,,,-0.022679388523101807,0.02225326932966709,0.6396646499633789,0.767997145652771,"[0.0,0.0,0.0,0.0,0.0,0.0,0.0,0.0,0.0]",0.0016451855784877258,0.00018671841122209115,-0.0022456674168713337,"[0.0,0.0,0.0,0.0,0.0,0.0,0.0,0.0,0.0]",-0.621641952291131,-0.06666454342224169,9.798456756672262,"[0.0,0.0,0.0,0.0,0.0,0.0,0.0,0.0,0.0]"
1786663931673074911,2026-08-13T23:32:11.673075+00:00,14068748169986,2.083605257,1786663931,575122170,1786663931575122170,2026-08-13T23:32:11.575122+00:00,base_link,,,,,-0.022691473364830017,0.02225380577147007,0.6396642327308655,0.7679970860481262,"[0.0,0.0,0.0,0.0,0.0,0.0,0.0,0.0,0.0]",-0.0012833718677483558,0.0012431053402001428,-0.00041439014126667495,"[0.0,0.0,0.0,0.0,0.0,0.0,0.0,0.0,0.0]",-0.6217031809590756,-0.07450781796826049,9.792603938990831,"[0.0,0.0,0.0,0.0,0.0,0.0,0.0,0.0,0.0]"
1786663931694200248,2026-08-13T23:32:11.694200+00:00,14068769295259,2.10473053,1786663931,595066337,1786663931595066337,2026-08-13T23:32:11.595066+00:00,base_link,,,,,-0.022706495597958565,0.022244127467274666,0.639663815498352,0.7679972648620605,"[0.0,0.0,0.0,0.0,0.0,0.0,0.0,0.0,0.0]",-0.000993872343280344,-0.001693731442141615,-0.0014570400094060828,"[0.0,0.0,0.0,0.0,0.0,0.0,0.0,0.0,0.0]",-0.6112936498213559,-0.06726841389979235,9.798879365998506,"[0.0,0.0,0.0,0.0,0.0,0.0,0.0,0.0,0.0]"
1786663931714479160,2026-08-13T23:32:11.714479+00:00,14068789574267,2.125009538,1786663931,616981295,1786663931616981295,2026-08-13T23:32:11.616981+00:00,base_link,,,,,-0.02269287034869194,0.022236716002225876,0.6396641731262207,0.7679976224899292,"[0.0,0.0,0.0,0.0,0.0,0.0,0.0,0.0,0.0]",0.0005957691615737662,-0.0008802047138371678,-0.0017086166661074492,"[0.0,0.0,0.0,0.0,0.0,0.0,0.0,0.0,0.0]",-0.6194465611387043,-0.06597163382121361,9.793639711779356,"[0.0,0.0,0.0,0.0,0.0,0.0,0.0,0.0,0.0]"
1786663931734745017,2026-08-13T23:32:11.734745+00:00,14068809840029,2.1452753,1786663931,639157587,1786663931639157587,2026-08-13T23:32:11.639158+00:00,base_link,,,,,-0.022689243778586388,0.022253021597862244,0.639664351940155,0.7679970264434814,"[0.0,0.0,0.0,0.0,0.0,0.0,0.0,0.0,0.0]",-0.00022779919897322396,0.002582236102974732,0.002263877040899076,"[0.0,0.0,0.0,0.0,0.0,0.0,0.0,0.0,0.0]",-0.6190653798013925,-0.06047341543084476,9.802868143373727,"[0.0,0.0,0.0,0.0,0.0,0.0,0.0,0.0,0.0]"
1786663931756567166,2026-08-13T23:32:11.756567+00:00,14068831662145,2.167097416,1786663931,656874003,1786663931656874003,2026-08-13T23:32:11.656874+00:00,base_link,,,,,-0.022691888734698296,0.022263457998633385,0.6396642923355103,0.7679966688156128,"[0.0,0.0,0.0,0.0,0.0,0.0,0.0,0.0,0.0]",0.001926997696014223,-0.000599475285726491,0.005470723767889616,"[0.0,0.0,0.0,0.0,0.0,0.0,0.0,0.0,0.0]",-0.63425819969289,-0.06847845640983433,9.798110719713568,"[0.0,0.0,0.0,0.0,0.0,0.0,0.0,0.0,0.0]"
1786663931778866696,2026-08-13T23:32:11.778867+00:00,14068853961707,2.189396978,1786663931,679105420,1786663931679105420,2026-08-13T23:32:11.679106+00:00,base_link,,,,,-0.022710321471095085,0.02226421609520912,0.6396637558937073,0.767996609210968,"[0.0,0.0,0.0,0.0,0.0,0.0,0.0,0.0,0.0]",-0.00366566022876373,0.0009516362078487873,0.000677563902240333,"[0.0,0.0,0.0,0.0,0.0,0.0,0.0,0.0,0.0]",-0.6287918240457773,-0.05926031788061373,9.792032861104607,"[0.0,0.0,0.0,0.0,0.0,0.0,0.0,0.0,0.0]"
1786663931800581375,2026-08-13T23:32:11.800581+00:00,14068875676418,2.211111689,1786663931,701179337,1786663931701179337,2026-08-13T23:32:11.701180+00:00,base_link,,,,,-0.022698640823364258,0.0222474317997694,0.6396641731262207,0.7679972052574158,"[0.0,0.0,0.0,0.0,0.0,0.0,0.0,0.0,0.0]",0.001100189427051725,0.0017866198482054617,-0.001711776179047178,"[0.0,0.0,0.0,0.0,0.0,0.0,0.0,0.0,0.0]",-0.6081813630197197,-0.05229755249617155,9.791026898932456,"[0.0,0.0,0.0,0.0,0.0,0.0,0.0,0.0,0.0]"
1786663931822892087,2026-08-13T23:32:11.822892+00:00,14068897987002,2.233422273,1786663931,723084670,1786663931723084670,2026-08-13T23:32:11.723084+00:00,base_link,,,,,-0.02267027273774147,0.022242840379476547,0.6396650671958923,0.7679974436759949,"[0.0,0.0,0.0,0.0,0.0,0.0,0.0,0.0,0.0]",-0.005267853310663627,0.0009351500313555847,0.00012480493856315437,"[0.0,0.0,0.0,0.0,0.0,0.0,0.0,0.0,0.0]",-0.6151265059825033,-0.056475016277329995,9.79650269999504,"[0.0,0.0,0.0,0.0,0.0,0.0,0.0,0.0,0.0]"
1786663931844083327,2026-08-13T23:32:11.844083+00:00,14068919178434,2.254613705,1786663931,745022378,1786663931745022378,2026-08-13T23:32:11.745023+00:00,base_link,,,,,-0.02265702374279499,0.022246303036808968,0.639665424823761,0.7679973244667053,"[0.0,0.0,0.0,0.0,0.0,0.0,0.0,0.0,0.0]",0.002726320139954799,-0.0019331358402005028,0.00039997740733115365,"[0.0,0.0,0.0,0.0,0.0,0.0,0.0,0.0,0.0]",-0.6156432963982225,-0.06166795897765551,9.813140531063079,"[0.0,0.0,0.0,0.0,0.0,0.0,0.0,0.0,0.0]"
1786663931866218435,2026-08-13T23:32:11.866219+00:00,14068941313542,2.276748813,1786663931,766950170,1786663931766950170,2026-08-13T23:32:11.766950+00:00,base_link,,,,,-0.022661369293928146,0.0222635380923748,0.639665424823761,0.7679967284202576,"[0.0,0.0,0.0,0.0,0.0,0.0,0.0,0.0,0.0]",0.0008520806014026165,-0.0006120348600577779,-0.002768942420740701,"[0.0,0.0,0.0,0.0,0.0,0.0,0.0,0.0,0.0]",-0.6273194134056568,-0.05390610650423914,9.794164612436294,"[0.0,0.0,0.0,0.0,0.0,0.0,0.0,0.0,0.0]"
1786663931887765906,2026-08-13T23:32:11.887766+00:00,14068962861013,2.298296284,1786663931,789008337,1786663931789008337,2026-08-13T23:32:11.789008+00:00,base_link,,,,,-0.022680621594190598,0.02227657474577427,0.6396647691726685,0.7679962515830994,"[0.0,0.0,0.0,0.0,0.0,0.0,0.0,0.0,0.0]",-0.0004921768765075375,0.0017704466061440594,0.0017394453564683683,"[0.0,0.0,0.0,0.0,0.0,0.0,0.0,0.0,0.0]",-0.6290867153391242,-0.06608577998648398,9.787057410779594,"[0.0,0.0,0.0,0.0,0.0,0.0,0.0,0.0,0.0]"
1786663931908963385,2026-08-13T23:32:11.908963+00:00,14068984058492,2.319493763,1786663931,811534920,1786663931811534920,2026-08-13T23:32:11.811535+00:00,base_link,,,,,-0.022677019238471985,0.022269992157816887,0.639664888381958,0.7679964900016785,"[0.0,0.0,0.0,0.0,0.0,0.0,0.0,0.0,0.0]",-0.0015200543279196683,-0.0027651094453358584,-0.00012343395675784647,"[0.0,0.0,0.0,0.0,0.0,0.0,0.0,0.0,0.0]",-0.6226935071706772,-0.052770690999832004,9.796519066607951,"[0.0,0.0,0.0,0.0,0.0,0.0,0.0,0.0,0.0]"
1786663931929156775,2026-08-13T23:32:11.929157+00:00,14069004251850,2.339687121,1786663931,833006254,1786663931833006254,2026-08-13T23:32:11.833006+00:00,base_link,,,,,-0.02265877276659012,0.02227836847305298,0.6396654844284058,0.7679962515830994,"[0.0,0.0,0.0,0.0,0.0,0.0,0.0,0.0,0.0]",0.0024591130163087293,-0.002469523271397957,-0.004908240218826963,"[0.0,0.0,0.0,0.0,0.0,0.0,0.0,0.0,0.0]",-0.6137760412216187,-0.06804032985405065,9.800210906863212,"[0.0,0.0,0.0,0.0,0.0,0.0,0.0,0.0,0.0]"
1786663931949944842,2026-08-13T23:32:11.949945+00:00,14069025039758,2.360475029,1786663931,854947754,1786663931854947754,2026-08-13T23:32:11.854948+00:00,base_link,,,,,-0.022666102275252342,0.02226892299950123,0.6396651268005371,0.767996609210968,"[0.0,0.0,0.0,0.0,0.0,0.0,0.0,0.0,0.0]",-0.0004464293150649612,-0.004353277239026206,-0.00010930129036127814,"[0.0,0.0,0.0,0.0,0.0,0.0,0.0,0.0,0.0]",-0.6262612826548516,-0.07272397132536862,9.783805715507269,"[0.0,0.0,0.0,0.0,0.0,0.0,0.0,0.0,0.0]"
1786663931971476986,2026-08-13T23:32:11.971477+00:00,14069046571709,2.38200698,1786663931,875016754,1786663931875016754,2026-08-13T23:32:11.875017+00:00,base_link,,,,,-0.022668763995170593,0.022257797420024872,0.6396650671958923,0.7679969072341919,"[0.0,0.0,0.0,0.0,0.0,0.0,0.0,0.0,0.0]",-0.0010174121906031226,0.00123867003265813,0.000406513660290738,"[0.0,0.0,0.0,0.0,0.0,0.0,0.0,0.0,0.0]",-0.6125464994266628,-0.06767406295808032,9.795321965777873,"[0.0,0.0,0.0,0.0,0.0,0.0,0.0,0.0,0.0]"
1786663931993174078,2026-08-13T23:32:11.993174+00:00,14069068267905,2.403703176,1786663931,895096545,1786663931895096545,2026-08-13T23:32:11.895097+00:00,base_link,,,,,-0.022685403004288673,0.02224072813987732,0.6396645307540894,0.7679973244667053,"[0.0,0.0,0.0,0.0,0.0,0.0,0.0,0.0,0.0]",-0.0010089277858920235,0.00017332162512868486,-0.00358893830282883,"[0.0,0.0,0.0,0.0,0.0,0.0,0.0,0.0,0.0]",-0.6251501065425574,-0.06769733423581346,9.788012519547342,"[0.0,0.0,0.0,0.0,0.0,0.0,0.0,0.0,0.0]"
1786663932013690389,2026-08-13T23:32:12.013690+00:00,14069088785400,2.424220671,1786663931,917081212,1786663931917081212,2026-08-13T23:32:11.917081+00:00,base_link,,,,,-0.022689761593937874,0.022240256890654564,0.6396645307540894,0.7679972648620605,"[0.0,0.0,0.0,0.0,0.0,0.0,0.0,0.0,0.0]",0.0019004930013841299,0.0017955708262559751,-0.00039195118856248103,"[0.0,0.0,0.0,0.0,0.0,0.0,0.0,0.0,0.0]",-0.6209799812510609,-0.06434947597947903,9.788880534553527,"[0.0,0.0,0.0,0.0,0.0,0.0,0.0,0.0,0.0]"
1786663932034122450,2026-08-13T23:32:12.034122+00:00,14069109217557,2.444652828,1786663931,937038795,1786663931937038795,2026-08-13T23:32:11.937039+00:00,base_link,,,,,-0.022693006321787834,0.02224055677652359,0.6396644711494446,0.7679973244667053,"[0.0,0.0,0.0,0.0,0.0,0.0,0.0,0.0,0.0]",-0.0012753696408361829,-9.175467706170536e-05,0.0009339558350728335,"[0.0,0.0,0.0,0.0,0.0,0.0,0.0,0.0,0.0]",-0.6137769910696893,-0.06051686641350388,9.785979552415013,"[0.0,0.0,0.0,0.0,0.0,0.0,0.0,0.0,0.0]"
1786663932058171599,2026-08-13T23:32:12.058172+00:00,14069133266386,2.468701657,1786663931,959078587,1786663931959078587,2026-08-13T23:32:11.959079+00:00,base_link,,,,,-0.02269262634217739,0.02222728542983532,0.6396642923355103,0.767997682094574,"[0.0,0.0,0.0,0.0,0.0,0.0,0.0,0.0,0.0]",-0.0012702637316466341,-9.849069961233633e-05,0.0027984197649078653,"[0.0,0.0,0.0,0.0,0.0,0.0,0.0,0.0,0.0]",-0.6177946292132139,-0.06626456148633733,9.788805715751648,"[0.0,0.0,0.0,0.0,0.0,0.0,0.0,0.0,0.0]"
1786663932078289666,2026-08-13T23:32:12.078290+00:00,14069153384646,2.488819917,1786663931,979049004,1786663931979049004,2026-08-13T23:32:11.979049+00:00,base_link,,,,,-0.022681107744574547,0.022237319499254227,0.6396647691726685,0.7679973840713501,"[0.0,0.0,0.0,0.0,0.0,0.0,0.0,0.0,0.0]",-0.0018079941866594369,-0.00010860255192268418,0.0012123746978598253,"[0.0,0.0,0.0,0.0,0.0,0.0,0.0,0.0,0.0]",-0.6281595174916088,-0.054905629802448674,9.79019746237099,"[0.0,0.0,0.0,0.0,0.0,0.0,0.0,0.0,0.0]"
1786663932098942512,2026-08-13T23:32:12.098943+00:00,14069174037587,2.509472858,1786663931,998938920,1786663931998938920,2026-08-13T23:32:11.998939+00:00,base_link,,,,,-0.022660618647933006,0.022243836894631386,0.6396653652191162,0.7679972648620605,"[0.0,0.0,0.0,0.0,0.0,0.0,0.0,0.0,0.0]",0.0008540895455276474,0.00017707225450031,-0.0009391363855937156,"[0.0,0.0,0.0,0.0,0.0,0.0,0.0,0.0,0.0]",-0.6191299694702029,-0.05193222631511744,9.79532898004055,"[0.0,0.0,0.0,0.0,0.0,0.0,0.0,0.0,0.0]"
1786663932120108505,2026-08-13T23:32:12.120109+00:00,14069195203612,2.530638883,1786663932,18914004,1786663932018914004,2026-08-13T23:32:12.018914+00:00,base_link,,,,,-0.02266143262386322,0.022249961271882057,0.6396653652191162,0.7679972052574158,"[0.0,0.0,0.0,0.0,0.0,0.0,0.0,0.0,0.0]",-0.0017878307542636073,-0.0014343749220761249,0.0014800481347709837,"[0.0,0.0,0.0,0.0,0.0,0.0,0.0,0.0,0.0]",-0.6167135559782385,-0.06679742625402287,9.79749404911995,"[0.0,0.0,0.0,0.0,0.0,0.0,0.0,0.0,0.0]"
1786663932141404057,2026-08-13T23:32:12.141404+00:00,14069216498908,2.551934179,1786663932,41035754,1786663932041035754,2026-08-13T23:32:12.041036+00:00,base_link,,,,,-0.02268778346478939,0.0222481656819582,0.6396645307540894,0.7679970860481262,"[0.0,0.0,0.0,0.0,0.0,0.0,0.0,0.0,0.0]",0.0013884850674683717,-0.0006157484613473523,-0.004636537970544084,"[0.0,0.0,0.0,0.0,0.0,0.0,0.0,0.0,0.0]",-0.6402925114210695,-0.07038525814553723,9.794442260333895,"[0.0,0.0,0.0,0.0,0.0,0.0,0.0,0.0,0.0]"
1786663932162072614,2026-08-13T23:32:12.162073+00:00,14069237167433,2.572602704,1786663932,63190462,1786663932063190462,2026-08-13T23:32:12.063190+00:00,base_link,,,,,-0.022660477086901665,0.022248627617955208,0.6396653652191162,0.7679972052574158,"[0.0,0.0,0.0,0.0,0.0,0.0,0.0,0.0,0.0]",0.0006407020727019346,-0.007807098867607969,0.0006981301897659024,"[0.0,0.0,0.0,0.0,0.0,0.0,0.0,0.0,0.0]",-0.6146425949230789,-0.05354037846438586,9.795956172028184,"[0.0,0.0,0.0,0.0,0.0,0.0,0.0,0.0,0.0]"
1786663932183039101,2026-08-13T23:32:12.183039+00:00,14069258134240,2.593569511,1786663932,84907087,1786663932084907087,2026-08-13T23:32:12.084907+00:00,base_link,,,,,-0.022677108645439148,0.02224770002067089,0.639664888381958,0.767997145652771,"[0.0,0.0,0.0,0.0,0.0,0.0,0.0,0.0,0.0]",-0.0018029962083148476,-0.0006389241395962653,0.0030649392520380975,"[0.0,0.0,0.0,0.0,0.0,0.0,0.0,0.0,0.0]",-0.6156535985965281,-0.06515844057507347,9.796984930554032,"[0.0,0.0,0.0,0.0,0.0,0.0,0.0,0.0,0.0]"
1786663932204043282,2026-08-13T23:32:12.204043+00:00,14069279138389,2.61457366,1786663932,105069712,1786663932105069712,2026-08-13T23:32:12.105070+00:00,base_link,,,,,-0.02267349325120449,0.02223094180226326,0.6396649479866028,0.767997682094574,"[0.0,0.0,0.0,0.0,0.0,0.0,0.0,0.0,0.0]",0.0024489701176258105,-0.0008691148845361846,-0.00011515718888613134,"[0.0,0.0,0.0,0.0,0.0,0.0,0.0,0.0,0.0]",-0.6177648185968398,-0.06731855948471929,9.79924644574523,"[0.0,0.0,0.0,0.0,0.0,0.0,0.0,0.0,0.0]"
1786663932225265751,2026-08-13T23:32:12.225266+00:00,14069300360474,2.635795745,1786663932,125330920,1786663932125330920,2026-08-13T23:32:12.125331+00:00,base_link,,,,,-0.022656382992863655,0.022232038900256157,0.6396655440330505,0.767997682094574,"[0.0,0.0,0.0,0.0,0.0,0.0,0.0,0.0,0.0]",-0.000469571346198051,-0.0016927228739084775,-0.0027911743542820334,"[0.0,0.0,0.0,0.0,0.0,0.0,0.0,0.0,0.0]",-0.6239959680713713,-0.06432098053735681,9.79525416123867,"[0.0,0.0,0.0,0.0,0.0,0.0,0.0,0.0,0.0]"
1786663932245441830,2026-08-13T23:32:12.245442+00:00,14069320536873,2.655972144,1786663932,147161004,1786663932147161004,2026-08-13T23:32:12.147161+00:00,base_link,,,,,-0.022663841024041176,0.02223425917327404,0.6396653056144714,0.7679976224899292,"[0.0,0.0,0.0,0.0,0.0,0.0,0.0,0.0,0.0]",-0.00261369755416887,0.001763969975223528,0.0014637651413443459,"[0.0,0.0,0.0,0.0,0.0,0.0,0.0,0.0,0.0]",-0.6424088459879159,-0.06129311604958493,9.78768168015778,"[0.0,0.0,0.0,0.0,0.0,0.0,0.0,0.0,0.0]"
1786663932266530932,2026-08-13T23:32:12.266531+00:00,14069341625976,2.677061247,1786663932,169191462,1786663932169191462,2026-08-13T23:32:12.169191+00:00,base_link,,,,,-0.02267443761229515,0.02225947380065918,0.6396650671958923,0.7679967284202576,"[0.0,0.0,0.0,0.0,0.0,0.0,0.0,0.0,0.0]",-0.0017878862801320378,-0.0022283025142518513,-0.0017127968407364377,"[0.0,0.0,0.0,0.0,0.0,0.0,0.0,0.0,0.0]",-0.6231607593562454,-0.0678979942073347,9.806227390673756,"[0.0,0.0,0.0,0.0,0.0,0.0,0.0,0.0,0.0]"
1786663932286995727,2026-08-13T23:32:12.286996+00:00,14069362090802,2.697526073,1786663932,189085462,1786663932189085462,2026-08-13T23:32:12.189085+00:00,base_link,,,,,-0.022670965641736984,0.022260835394263268,0.6396651864051819,0.7679966688156128,"[0.0,0.0,0.0,0.0,0.0,0.0,0.0,0.0,0.0]",-0.00020975631509722779,-8.893345580048397e-05,0.0033376139182229106,"[0.0,0.0,0.0,0.0,0.0,0.0,0.0,0.0,0.0]",-0.6184712133005261,-0.04425518431463279,9.801451262313128,"[0.0,0.0,0.0,0.0,0.0,0.0,0.0,0.0,0.0]"
1786663932309144627,2026-08-13T23:32:12.309144+00:00,14069384239702,2.719674973,1786663932,211105129,1786663932211105129,2026-08-13T23:32:12.211105+00:00,base_link,,,,,-0.022662445902824402,0.022287642583251,0.6396655440330505,0.7679959535598755,"[0.0,0.0,0.0,0.0,0.0,0.0,0.0,0.0,0.0]",-0.0015527608849457161,0.0015018140151215522,-0.0014424209715120941,"[0.0,0.0,0.0,0.0,0.0,0.0,0.0,0.0,0.0]",-0.6322774742044508,-0.052621441555139606,9.801032160118222,"[0.0,0.0,0.0,0.0,0.0,0.0,0.0,0.0,0.0]"
1786663932330585193,2026-08-13T23:32:12.330585+00:00,14069405680364,2.741115635,1786663932,234904837,1786663932234904837,2026-08-13T23:32:12.234905+00:00,base_link,,,,,-0.022651761770248413,0.022293640300631523,0.6396657824516296,0.7679957747459412,"[0.0,0.0,0.0,0.0,0.0,0.0,0.0,0.0,0.0]",0.0008497144451919191,0.0007107623898525024,-0.003862899036551772,"[0.0,0.0,0.0,0.0,0.0,0.0,0.0,0.0,0.0]",-0.6233093740466982,-0.051518097122851755,9.784068165835738,"[0.0,0.0,0.0,0.0,0.0,0.0,0.0,0.0,0.0]"
1786663932351572031,2026-08-13T23:32:12.351572+00:00,14069426667074,2.762102345,1786663932,257036504,1786663932257036504,2026-08-13T23:32:12.257036+00:00,base_link,,,,,-0.022647298872470856,0.022306159138679504,0.6396660804748535,0.7679954171180725,"[0.0,0.0,0.0,0.0,0.0,0.0,0.0,0.0,0.0]",0.0005597807266379811,0.004169520684256689,0.0014760528729872145,"[0.0,0.0,0.0,0.0,0.0,0.0,0.0,0.0,0.0]",-0.6248037773229181,-0.06215584752587601,9.790468096005917,"[0.0,0.0,0.0,0.0,0.0,0.0,0.0,0.0,0.0]"
1786663932372221996,2026-08-13T23:32:12.372222+00:00,14069447317103,2.782752374,1786663932,281123504,1786663932281123504,2026-08-13T23:32:12.281124+00:00,base_link,,,,,-0.02264978177845478,0.022287564352154732,0.6396658420562744,0.7679959535598755,"[0.0,0.0,0.0,0.0,0.0,0.0,0.0,0.0,0.0]",-0.000715497498072893,-0.0035591350855321865,0.0009502039785398942,"[0.0,0.0,0.0,0.0,0.0,0.0,0.0,0.0,0.0]",-0.6131811440683901,-0.08084483897006138,9.793420516070723,"[0.0,0.0,0.0,0.0,0.0,0.0,0.0,0.0,0.0]"
1786663932392594222,2026-08-13T23:32:12.392594+00:00,14069467689265,2.803124536,1786663932,303104670,1786663932303104670,2026-08-13T23:32:12.303105+00:00,base_link,,,,,-0.02266268990933895,0.022282160818576813,0.6396653652191162,0.7679961323738098,"[0.0,0.0,0.0,0.0,0.0,0.0,0.0,0.0,0.0]",0.0029887023647197017,-0.0016634707541069392,0.001485899286939402,"[0.0,0.0,0.0,0.0,0.0,0.0,0.0,0.0,0.0]",-0.6147307846631854,-0.06258168085566722,9.794672561958432,"[0.0,0.0,0.0,0.0,0.0,0.0,0.0,0.0,0.0]"
1786663932413177984,2026-08-13T23:32:12.413178+00:00,14069488273123,2.823708394,1786663932,329059212,1786663932329059212,2026-08-13T23:32:12.329059+00:00,base_link,,,,,-0.022645948454737663,0.022281859070062637,0.639665961265564,0.7679961919784546,"[0.0,0.0,0.0,0.0,0.0,0.0,0.0,0.0,0.0]",-0.00020124473261914496,-0.0027562203649747433,-0.002778281689758743,"[0.0,0.0,0.0,0.0,0.0,0.0,0.0,0.0,0.0]",-0.6177858613848686,-0.06838112894862425,9.81036054495573,"[0.0,0.0,0.0,0.0,0.0,0.0,0.0,0.0,0.0]"
1786663932433519107,2026-08-13T23:32:12.433519+00:00,14069508614214,2.844049485,1786663932,351131379,1786663932351131379,2026-08-13T23:32:12.351131+00:00,base_link,,,,,-0.02264457195997238,0.02224728651344776,0.6396657824516296,0.7679972648620605,"[0.0,0.0,0.0,0.0,0.0,0.0,0.0,0.0,0.0]",-0.001022374213672253,0.002569949671703489,-0.0017165151233638656,"[0.0,0.0,0.0,0.0,0.0,0.0,0.0,0.0,0.0]",-0.612261654603295,-0.06850920317454728,9.782455469942093,"[0.0,0.0,0.0,0.0,0.0,0.0,0.0,0.0,0.0]"
1786663932455476821,2026-08-13T23:32:12.455477+00:00,14069530571768,2.866007039,1786663932,371082545,1786663932371082545,2026-08-13T23:32:12.371083+00:00,base_link,,,,,-0.022628415375947952,0.022259529680013657,0.6396664381027222,0.7679969668388367,"[0.0,0.0,0.0,0.0,0.0,0.0,0.0,0.0,0.0]",0.0026936433614389867,0.0017981447818525096,0.00067436921424812,"[0.0,0.0,0.0,0.0,0.0,0.0,0.0,0.0,0.0]",-0.622923589599505,-0.06051352367894724,9.808924959194659,"[0.0,0.0,0.0,0.0,0.0,0.0,0.0,0.0,0.0]"
1786663932476081318,2026-08-13T23:32:12.476081+00:00,14069551175977,2.886611248,1786663932,389259212,1786663932389259212,2026-08-13T23:32:12.389259+00:00,base_link,,,,,-0.02263166382908821,0.022261591628193855,0.6396662592887878,0.7679969668388367,"[0.0,0.0,0.0,0.0,0.0,0.0,0.0,0.0,0.0]",0.0011217922408003913,0.000725535976914243,-0.0003828153626853295,"[0.0,0.0,0.0,0.0,0.0,0.0,0.0,0.0,0.0]",-0.6105833461275324,-0.05591796691645868,9.792910228461027,"[0.0,0.0,0.0,0.0,0.0,0.0,0.0,0.0,0.0]"
1786663932497465119,2026-08-13T23:32:12.497465+00:00,14069572560226,2.907995497,1786663932,405175170,1786663932405175170,2026-08-13T23:32:12.405175+00:00,base_link,,,,,-0.022609099745750427,0.022251106798648834,0.6396670341491699,0.7679972052574158,"[0.0,0.0,0.0,0.0,0.0,0.0,0.0,0.0,0.0]",0.0011168733250506635,-0.0011448830698007066,-0.0014617517759557867,"[0.0,0.0,0.0,0.0,0.0,0.0,0.0,0.0,0.0]",-0.614955241068825,-0.0658937919451855,9.80435516706109,"[0.0,0.0,0.0,0.0,0.0,0.0,0.0,0.0,0.0]"
1786663932518517425,2026-08-13T23:32:12.518517+00:00,14069593612340,2.929047611,1786663932,424974670,1786663932424974670,2026-08-13T23:32:12.424975+00:00,base_link,,,,,-0.022612713277339935,0.022243987768888474,0.6396669149398804,0.7679974436759949,"[0.0,0.0,0.0,0.0,0.0,0.0,0.0,0.0,0.0]",-0.0009959808958719277,-0.0014300853861933882,0.0014596072030701622,"[0.0,0.0,0.0,0.0,0.0,0.0,0.0,0.0,0.0]",-0.6125205612678081,-0.06347871646035928,9.797764682754874,"[0.0,0.0,0.0,0.0,0.0,0.0,0.0,0.0,0.0]"
1786663932538890002,2026-08-13T23:32:12.538890+00:00,14069613985109,2.94942038,1786663932,446981795,1786663932446981795,2026-08-13T23:32:12.446982+00:00,base_link,,,,,-0.02262476645410061,0.022247908636927605,0.6396666169166565,0.7679972648620605,"[0.0,0.0,0.0,0.0,0.0,0.0,0.0,0.0,0.0]",0.0013634031094343017,0.0033894043391208706,-0.0003784662697821215,"[0.0,0.0,0.0,0.0,0.0,0.0,0.0,0.0,0.0]",-0.6281431508786975,-0.06178626529481262,9.793131177735328,"[0.0,0.0,0.0,0.0,0.0,0.0,0.0,0.0,0.0]"
1786663932559617498,2026-08-13T23:32:12.559618+00:00,14069634712605,2.970147876,1786663932,469001170,1786663932469001170,2026-08-13T23:32:12.469001+00:00,base_link,,,,,-0.022632010281085968,0.022238370031118393,0.6396661996841431,0.7679975628852844,"[0.0,0.0,0.0,0.0,0.0,0.0,0.0,0.0,0.0]",0.00032473426400935824,-0.0006249808398177355,-0.0006474451497686368,"[0.0,0.0,0.0,0.0,0.0,0.0,0.0,0.0,0.0]",-0.608941168411076,-0.06066851787783671,9.79269746249318,"[0.0,0.0,0.0,0.0,0.0,0.0,0.0,0.0,0.0]"
1786663932581321117,2026-08-13T23:32:12.581321+00:00,14069656415936,2.991851207,1786663932,483084004,1786663932483084004,2026-08-13T23:32:12.483084+00:00,base_link,,,,,-0.02263275533914566,0.02223126031458378,0.6396661996841431,0.7679978013038635,"[0.0,0.0,0.0,0.0,0.0,0.0,0.0,0.0,0.0]",-0.0007335397642723668,-0.0008891701910313113,0.0038899121764876376,"[0.0,0.0,0.0,0.0,0.0,0.0,0.0,0.0,0.0]",-0.6230211316898465,-0.06020321562075987,9.814599497699737,"[0.0,0.0,0.0,0.0,0.0,0.0,0.0,0.0,0.0]"
1786663932602026023,2026-08-13T23:32:12.602026+00:00,14069677121162,3.012556433,1786663932,502914712,1786663932502914712,2026-08-13T23:32:12.502915+00:00,base_link,,,,,-0.022628149017691612,0.022235725075006485,0.6396663188934326,0.7679977416992188,"[0.0,0.0,0.0,0.0,0.0,0.0,0.0,0.0,0.0]",-0.0017811303293862382,-0.004622325948969038,-0.0009189039034645445,"[0.0,0.0,0.0,0.0,0.0,0.0,0.0,0.0,0.0]",-0.6132316321466118,-0.06335280679205897,9.797311678290367,"[0.0,0.0,0.0,0.0,0.0,0.0,0.0,0.0,0.0]"
1786663932627395655,2026-08-13T23:32:12.627396+00:00,14069702490698,3.037925969,1786663932,528905129,1786663932528905129,2026-08-13T23:32:12.528905+00:00,base_link,,,,,-0.022639241069555283,0.022242313250899315,0.6396659016609192,0.7679975628852844,"[0.0,0.0,0.0,0.0,0.0,0.0,0.0,0.0,0.0]",0.0003039124534592768,0.00204932924647147,-0.0009282100780247038,"[0.0,0.0,0.0,0.0,0.0,0.0,0.0,0.0,0.0]",-0.6206802676521241,-0.05782646741890348,9.797741301879286,"[0.0,0.0,0.0,0.0,0.0,0.0,0.0,0.0,0.0]"
1786663932648154669,2026-08-13T23:32:12.648155+00:00,14069723249680,3.058684951,1786663932,549143879,1786663932549143879,2026-08-13T23:32:12.549144+00:00,base_link,,,,,-0.022660691291093826,0.022239333018660545,0.6396653056144714,0.7679975628852844,"[0.0,0.0,0.0,0.0,0.0,0.0,0.0,0.0,0.0]",-0.004202941535416908,0.0009517843201769905,0.004409972661697495,"[0.0,0.0,0.0,0.0,0.0,0.0,0.0,0.0,0.0]",-0.6291083426490426,-0.06757055691783316,9.789730429381132,"[0.0,0.0,0.0,0.0,0.0,0.0,0.0,0.0,0.0]"
1786663932668845816,2026-08-13T23:32:12.668846+00:00,14069743940859,3.07937613,1786663932,568934921,1786663932568934921,2026-08-13T23:32:12.568935+00:00,base_link,,,,,-0.022685253992676735,0.022255783900618553,0.6396644711494446,0.7679970264434814,"[0.0,0.0,0.0,0.0,0.0,0.0,0.0,0.0,0.0]",-0.0034054896760603547,-0.0003767441876377895,-0.004113316021837058,"[0.0,0.0,0.0,0.0,0.0,0.0,0.0,0.0,0.0]",-0.6200947228491306,-0.06350096939136274,9.79756419174671,"[0.0,0.0,0.0,0.0,0.0,0.0,0.0,0.0,0.0]"
1786663932690864517,2026-08-13T23:32:12.690865+00:00,14069765959560,3.101394831,1786663932,591194921,1786663932591194921,2026-08-13T23:32:12.591195+00:00,base_link,,,,,-0.022684073075652122,0.02226240560412407,0.6396645903587341,0.7679968476295471,"[0.0,0.0,0.0,0.0,0.0,0.0,0.0,0.0,0.0]",-0.0007249956725036336,-0.0016976380185804898,0.0014853158101908088,"[0.0,0.0,0.0,0.0,0.0,0.0,0.0,0.0,0.0]",-0.6222441559679806,-0.061392640034458594,9.789508895584941,"[0.0,0.0,0.0,0.0,0.0,0.0,0.0,0.0,0.0]"
1786663932712193475,2026-08-13T23:32:12.712193+00:00,14069787288550,3.122723821,1786663932,615002212,1786663932615002212,2026-08-13T23:32:12.615002+00:00,base_link,,,,,-0.02268172986805439,0.02226460725069046,0.6396645307540894,0.7679968476295471,"[0.0,0.0,0.0,0.0,0.0,0.0,0.0,0.0,0.0]",-0.0015340677827474214,0.00016714091002629838,0.003325248684431132,"[0.0,0.0,0.0,0.0,0.0,0.0,0.0,0.0,0.0]",-0.6103262660939246,-0.05826026485944166,9.79144833921492,"[0.0,0.0,0.0,0.0,0.0,0.0,0.0,0.0,0.0]"
1786663932732816242,2026-08-13T23:32:12.732816+00:00,14069807910806,3.143346077,1786663932,636940796,1786663932636940796,2026-08-13T23:32:12.636941+00:00,base_link,,,,,-0.022670697420835495,0.022282255813479424,0.6396650075912476,0.7679962515830994,"[0.0,0.0,0.0,0.0,0.0,0.0,0.0,0.0,0.0]",-0.001784908169034138,-0.0016978489388582297,0.0014674516949040991,"[0.0,0.0,0.0,0.0,0.0,0.0,0.0,0.0,0.0]",-0.6257840205319225,-0.05611869538663886,9.789745626950264,"[0.0,0.0,0.0,0.0,0.0,0.0,0.0,0.0,0.0]"
1786663932753154390,2026-08-13T23:32:12.753154+00:00,14069828249337,3.163684608,1786663932,658874421,1786663932658874421,2026-08-13T23:32:12.658874+00:00,base_link,,,,,-0.02268282324075699,0.02230643667280674,0.6396647095680237,0.7679953575134277,"[0.0,0.0,0.0,0.0,0.0,0.0,0.0,0.0,0.0]",-0.00182687116140565,0.0033553491666814825,-0.002250083478913282,"[0.0,0.0,0.0,0.0,0.0,0.0,0.0,0.0,0.0]",-0.6273246741026639,-0.05959745001364499,9.807730196452141,"[0.0,0.0,0.0,0.0,0.0,0.0,0.0,0.0,0.0]"
1786663932776540451,2026-08-13T23:32:12.776541+00:00,14069851635558,3.187070829,1786663932,681170004,1786663932681170004,2026-08-13T23:32:12.681170+00:00,base_link,,,,,-0.02267639897763729,0.02231273427605629,0.639664888381958,0.767995297908783,"[0.0,0.0,0.0,0.0,0.0,0.0,0.0,0.0,0.0]",0.002433349013356815,0.0017887706628748911,0.0006664284949138579,"[0.0,0.0,0.0,0.0,0.0,0.0,0.0,0.0,0.0]",-0.6203517663501202,-0.058562015151837836,9.805783738559484,"[0.0,0.0,0.0,0.0,0.0,0.0,0.0,0.0,0.0]"
1786663932798346991,2026-08-13T23:32:12.798347+00:00,14069873442098,3.208877369,1786663932,702983754,1786663932702983754,2026-08-13T23:32:12.702984+00:00,base_link,,,,,-0.02267344295978546,0.022312108427286148,0.6396649479866028,0.7679953575134277,"[0.0,0.0,0.0,0.0,0.0,0.0,0.0,0.0,0.0]",0.0006175118953093916,-0.004610424427699096,0.0006849169186182174,"[0.0,0.0,0.0,0.0,0.0,0.0,0.0,0.0,0.0]",-0.6172463476806879,-0.05481091442343313,9.804735106289387,"[0.0,0.0,0.0,0.0,0.0,0.0,0.0,0.0,0.0]"
1786663932818572145,2026-08-13T23:32:12.818572+00:00,14069893667348,3.229102619,1786663932,725032004,1786663932725032004,2026-08-13T23:32:12.725032+00:00,base_link,,,,,-0.02266879752278328,0.02231750264763832,0.6396650671958923,0.7679952383041382,"[0.0,0.0,0.0,0.0,0.0,0.0,0.0,0.0,0.0]",0.001909928237828171,0.0007229649471538669,0.0009478724772330301,"[0.0,0.0,0.0,0.0,0.0,0.0,0.0,0.0,0.0]",-0.6280787073403596,-0.06998022100860253,9.790288647785783,"[0.0,0.0,0.0,0.0,0.0,0.0,0.0,0.0,0.0]"
1786663932839889117,2026-08-13T23:32:12.839889+00:00,14069914984256,3.250419527,1786663932,746993046,1786663932746993046,2026-08-13T23:32:12.746993+00:00,base_link,,,,,-0.02268529124557972,0.02231927216053009,0.6396645903587341,0.7679950594902039,"[0.0,0.0,0.0,0.0,0.0,0.0,0.0,0.0,0.0]",0.004296926674910135,0.0002061612264267194,-0.004901374256641602,"[0.0,0.0,0.0,0.0,0.0,0.0,0.0,0.0,0.0]",-0.6208657802868635,-0.06114948349492624,9.78850293341279,"[0.0,0.0,0.0,0.0,0.0,0.0,0.0,0.0,0.0]"
1786663932860023594,2026-08-13T23:32:12.860023+00:00,14069935118701,3.270553972,1786663932,767019462,1786663932767019462,2026-08-13T23:32:12.767020+00:00,base_link,,,,,-0.022686336189508438,0.02233305759727955,0.6396645903587341,0.7679946422576904,"[0.0,0.0,0.0,0.0,0.0,0.0,0.0,0.0,0.0]",-0.0007311512416697019,-0.0006186465995902525,-0.0001221324554339811,"[0.0,0.0,0.0,0.0,0.0,0.0,0.0,0.0,0.0]",-0.6218848942015319,-0.05900875427233986,9.810215583527087,"[0.0,0.0,0.0,0.0,0.0,0.0,0.0,0.0,0.0]"
1786663932881077426,2026-08-13T23:32:12.881078+00:00,14069956172341,3.291607612,1786663932,781116004,1786663932781116004,2026-08-13T23:32:12.781116+00:00,base_link,,,,,-0.022684387862682343,0.022318962961435318,0.6396645903587341,0.7679951190948486,"[0.0,0.0,0.0,0.0,0.0,0.0,0.0,0.0,0.0]",0.00193594035168633,-0.003540291660373925,0.00040793769725838735,"[0.0,0.0,0.0,0.0,0.0,0.0,0.0,0.0,0.0]",-0.6150923114519566,-0.06568640997193288,9.791272398126125,"[0.0,0.0,0.0,0.0,0.0,0.0,0.0,0.0,0.0]"
1786663932901968076,2026-08-13T23:32:12.901968+00:00,14069977063247,3.312498518,1786663932,803167462,1786663932803167462,2026-08-13T23:32:12.803168+00:00,base_link,,,,,-0.022685742005705833,0.022299066185951233,0.6396644115447998,0.7679958343505859,"[0.0,0.0,0.0,0.0,0.0,0.0,0.0,0.0,0.0]",0.0013974337048499584,-0.0019285015757997096,-0.003585472292296849,"[0.0,0.0,0.0,0.0,0.0,0.0,0.0,0.0,0.0]",-0.6200532948601991,-0.07136265637690667,9.815658651363849,"[0.0,0.0,0.0,0.0,0.0,0.0,0.0,0.0,0.0]"
1786663932923827453,2026-08-13T23:32:12.923827+00:00,14069998922624,3.334357895,1786663932,825110129,1786663932825110129,2026-08-13T23:32:12.825110+00:00,base_link,,,,,-0.02268541045486927,0.02229217253625393,0.639664351940155,0.767996072769165,"[0.0,0.0,0.0,0.0,0.0,0.0,0.0,0.0,0.0]",-0.0025798462800004406,-0.004094206800718439,-0.002769470111546538,"[0.0,0.0,0.0,0.0,0.0,0.0,0.0,0.0,0.0]",-0.6164112850960344,-0.059531079379701986,9.798668938118219,"[0.0,0.0,0.0,0.0,0.0,0.0,0.0,0.0,0.0]"
1786663932945574330,2026-08-13T23:32:12.945574+00:00,14070020669469,3.35610474,1786663932,849032921,1786663932849032921,2026-08-13T23:32:12.849033+00:00,base_link,,,,,-0.022672070190310478,0.022290600463747978,0.6396647095680237,0.7679961323738098,"[0.0,0.0,0.0,0.0,0.0,0.0,0.0,0.0,0.0]",0.001375072254294675,0.0007263016357276407,-0.0030485545695503055,"[0.0,0.0,0.0,0.0,0.0,0.0,0.0,0.0,0.0]",-0.6225584826141596,-0.06322647699865047,9.804099146473407,"[0.0,0.0,0.0,0.0,0.0,0.0,0.0,0.0,0.0]"
1786663932966846826,2026-08-13T23:32:12.966847+00:00,14070041941837,3.377377108,1786663932,871091671,1786663932871091671,2026-08-13T23:32:12.871092+00:00,base_link,,,,,-0.022666001692414284,0.022287171334028244,0.6396650075912476,0.7679962515830994,"[0.0,0.0,0.0,0.0,0.0,0.0,0.0,0.0,0.0]",-0.0007431757130768838,0.0001746074651017794,-0.0014675228252320422,"[0.0,0.0,0.0,0.0,0.0,0.0,0.0,0.0,0.0]",-0.6210550923138857,-0.06768427382484078,9.781294609469175,"[0.0,0.0,0.0,0.0,0.0,0.0,0.0,0.0,0.0]"
1786663932987014195,2026-08-13T23:32:12.987014+00:00,14070062109334,3.397544605,1786663932,889075254,1786663932889075254,2026-08-13T23:32:12.889075+00:00,base_link,,,,,-0.02268613688647747,0.022297333925962448,0.6396642327308655,0.7679959535598755,"[0.0,0.0,0.0,0.0,0.0,0.0,0.0,0.0,0.0]",0.0013907142945468497,-0.0006213076800857301,0.0017329766578147554,"[0.0,0.0,0.0,0.0,0.0,0.0,0.0,0.0,0.0]",-0.6221490250304341,-0.07123585165946278,9.80951883343458,"[0.0,0.0,0.0,0.0,0.0,0.0,0.0,0.0,0.0]"
1786663933007308206,2026-08-13T23:32:13.007308+00:00,14070082403410,3.417838681,1786663932,909206962,1786663932909206962,2026-08-13T23:32:12.909207+00:00,base_link,,,,,-0.02268478088080883,0.02228366583585739,0.6396642923355103,0.7679963111877441,"[0.0,0.0,0.0,0.0,0.0,0.0,0.0,0.0,0.0]",0.0019011574912850236,0.0012672035670991324,-0.001182091643433182,"[0.0,0.0,0.0,0.0,0.0,0.0,0.0,0.0,0.0]",-0.6231983148876578,-0.06285105411526747,9.800668002980947,"[0.0,0.0,0.0,0.0,0.0,0.0,0.0,0.0,0.0]"
1786663933029583634,2026-08-13T23:32:13.029584+00:00,14070104678709,3.44011398,1786663932,933049546,1786663932933049546,2026-08-13T23:32:12.933050+00:00,base_link,,,,,-0.02269732393324375,0.02226347103714943,0.639663815498352,0.7679969668388367,"[0.0,0.0,0.0,0.0,0.0,0.0,0.0,0.0,0.0]",0.0016402303823696322,0.0009872080037155971,-0.0011978114459085926,"[0.0,0.0,0.0,0.0,0.0,0.0,0.0,0.0,0.0]",-0.624204496255517,-0.06320425603368784,9.800405552652478,"[0.0,0.0,0.0,0.0,0.0,0.0,0.0,0.0,0.0]"
1786663933050045339,2026-08-13T23:32:13.050045+00:00,14070125140478,3.460575749,1786663932,952983212,1786663932952983212,2026-08-13T23:32:12.952983+00:00,base_link,,,,,-0.0226941779255867,0.02228643000125885,0.6396639943122864,0.7679962515830994,"[0.0,0.0,0.0,0.0,0.0,0.0,0.0,0.0,0.0]",0.0011042398245924374,0.0017745560405565933,-0.00118286380410471,"[0.0,0.0,0.0,0.0,0.0,0.0,0.0,0.0,0.0]",-0.6191805306136607,-0.05475206494224257,9.806080091157556,"[0.0,0.0,0.0,0.0,0.0,0.0,0.0,0.0,0.0]"
1786663933070933717,2026-08-13T23:32:13.070934+00:00,14070146028856,3.481464127,1786663932,973083421,1786663932973083421,2026-08-13T23:32:12.973083+00:00,base_link,,,,,-0.022682109847664833,0.02228969894349575,0.639664351940155,0.7679962515830994,"[0.0,0.0,0.0,0.0,0.0,0.0,0.0,0.0,0.0]",-0.003939559584945925,0.0017517350386686758,-0.0006484635358075506,"[0.0,0.0,0.0,0.0,0.0,0.0,0.0,0.0,0.0]",-0.6194702342752367,-0.06054775930868927,9.792062087199092,"[0.0,0.0,0.0,0.0,0.0,0.0,0.0,0.0,0.0]"
1786663933091724634,2026-08-13T23:32:13.091725+00:00,14070166819805,3.502255076,1786663932,993099921,1786663932993099921,2026-08-13T23:32:12.993100+00:00,base_link,,,,,-0.022677946835756302,0.022289568558335304,0.6396644711494446,0.7679962515830994,"[0.0,0.0,0.0,0.0,0.0,0.0,0.0,0.0,0.0]",0.0003307424360516178,-0.0011448484799154548,-0.00011304232949216143,"[0.0,0.0,0.0,0.0,0.0,0.0,0.0,0.0,0.0]",-0.6222621300160884,-0.07610852203001267,9.794771930679678,"[0.0,0.0,0.0,0.0,0.0,0.0,0.0,0.0,0.0]"
1786663933112205601,2026-08-13T23:32:13.112206+00:00,14070187300804,3.522736075,1786663933,14970837,1786663933014970837,2026-08-13T23:32:13.014971+00:00,base_link,,,,,-0.022706469520926476,0.022278418764472008,0.639663577079773,0.7679964900016785,"[0.0,0.0,0.0,0.0,0.0,0.0,0.0,0.0,0.0]",-0.001559730096638182,0.0038990087961602647,0.00040051355055255967,"[0.0,0.0,0.0,0.0,0.0,0.0,0.0,0.0,0.0]",-0.6251600434146821,-0.06868756454929244,9.795117383116484,"[0.0,0.0,0.0,0.0,0.0,0.0,0.0,0.0,0.0]"
1786663933135761369,2026-08-13T23:32:13.135761+00:00,14070210856476,3.546291747,1786663933,36933921,1786663933036933921,2026-08-13T23:32:13.036934+00:00,base_link,,,,,-0.022706862539052963,0.0222784411162138,0.639663577079773,0.7679964900016785,"[0.0,0.0,0.0,0.0,0.0,0.0,0.0,0.0,0.0]",0.0024399444982439638,0.0012630782681527617,0.003329358378917991,"[0.0,0.0,0.0,0.0,0.0,0.0,0.0,0.0,0.0]",-0.62354150230214,-0.05687735000052489,9.79447090190649,"[0.0,0.0,0.0,0.0,0.0,0.0,0.0,0.0,0.0]"
1786663933156687375,2026-08-13T23:32:13.156687+00:00,14070231782482,3.567217753,1786663933,57044046,1786663933057044046,2026-08-13T23:32:13.057044+00:00,base_link,,,,,-0.022703025490045547,0.022301264107227325,0.6396637558937073,0.7679957747459412,"[0.0,0.0,0.0,0.0,0.0,0.0,0.0,0.0,0.0]",-0.0007232430316260902,-0.002225539484620894,0.000414203798012667,"[0.0,0.0,0.0,0.0,0.0,0.0,0.0,0.0,0.0]",-0.6265611423842609,-0.06262322757560759,9.792426244336365,"[0.0,0.0,0.0,0.0,0.0,0.0,0.0,0.0,0.0]"
1786663933177039908,2026-08-13T23:32:13.177040+00:00,14070252134983,3.587570254,1786663933,77030212,1786663933077030212,2026-08-13T23:32:13.077030+00:00,base_link,,,,,-0.0227197352796793,0.022295895963907242,0.6396632194519043,0.7679958343505859,"[0.0,0.0,0.0,0.0,0.0,0.0,0.0,0.0,0.0]",0.0016610943249603962,-0.0030119126978724476,-0.0033332236035391585,"[0.0,0.0,0.0,0.0,0.0,0.0,0.0,0.0,0.0]",-0.6266529123209417,-0.07519779126010835,9.788042330163716,"[0.0,0.0,0.0,0.0,0.0,0.0,0.0,0.0,0.0]"
1786663933197897537,2026-08-13T23:32:13.197897+00:00,14070272992613,3.608427884,1786663933,99075546,1786663933099075546,2026-08-13T23:32:13.099076+00:00,base_link,,,,,-0.022721169516444206,0.022280219942331314,0.6396631598472595,0.7679963707923889,"[0.0,0.0,0.0,0.0,0.0,0.0,0.0,0.0,0.0]",0.0013802663286804674,0.0004542282938919876,0.0012175310614684636,"[0.0,0.0,0.0,0.0,0.0,0.0,0.0,0.0,0.0]",-0.6191732240900397,-0.0581672756466316,9.791683901536464,"[0.0,0.0,0.0,0.0,0.0,0.0,0.0,0.0,0.0]"
1786663933218829623,2026-08-13T23:32:13.218830+00:00,14070293924762,3.629360033,1786663933,121254171,1786663933121254171,2026-08-13T23:32:13.121254+00:00,base_link,,,,,-0.02272522822022438,0.022283660247921944,0.63966304063797,0.7679961919784546,"[0.0,0.0,0.0,0.0,0.0,0.0,0.0,0.0,0.0]",0.0032304586149014005,0.002327086285119401,-0.0025233214660864848,"[0.0,0.0,0.0,0.0,0.0,0.0,0.0,0.0,0.0]",-0.6194726454280316,-0.060417634689575055,9.804978267395496,"[0.0,0.0,0.0,0.0,0.0,0.0,0.0,0.0,0.0]"
1786663933238931943,2026-08-13T23:32:13.238932+00:00,14070314027114,3.649462385,1786663933,141021587,1786663933141021587,2026-08-13T23:32:13.141022+00:00,base_link,,,,,-0.022711945697665215,0.02228883095085621,0.6396635174751282,0.767996072769165,"[0.0,0.0,0.0,0.0,0.0,0.0,0.0,0.0,0.0]",-0.0028738551031559853,0.00042660979845492164,0.002273215269619817,"[0.0,0.0,0.0,0.0,0.0,0.0,0.0,0.0,0.0]",-0.6270794671699405,-0.05799939456670545,9.802873404070734,"[0.0,0.0,0.0,0.0,0.0,0.0,0.0,0.0,0.0]"
1786663933260350984,2026-08-13T23:32:13.260351+00:00,14070335446219,3.67088149,1786663933,164897712,1786663933164897712,2026-08-13T23:32:13.164898+00:00,base_link,,,,,-0.02271825633943081,0.022292129695415497,0.6396632790565491,0.7679958939552307,"[0.0,0.0,0.0,0.0,0.0,0.0,0.0,0.0,0.0]",0.0048595392208380895,-0.0035305981701249565,-0.00011397027468448593,"[0.0,0.0,0.0,0.0,0.0,0.0,0.0,0.0,0.0]",-0.6225039759479463,-0.060189264727220866,9.802541395637393,"[0.0,0.0,0.0,0.0,0.0,0.0,0.0,0.0,0.0]"
1786663933281717966,2026-08-13T23:32:13.281718+00:00,14070356813137,3.692248408,1786663933,185129754,1786663933185129754,2026-08-13T23:32:13.185130+00:00,base_link,,,,,-0.0227305106818676,0.02230599895119667,0.6396628618240356,0.7679954767227173,"[0.0,0.0,0.0,0.0,0.0,0.0,0.0,0.0,0.0]",0.0019177070608949946,-0.0006066705670261399,0.002003784900604749,"[0.0,0.0,0.0,0.0,0.0,0.0,0.0,0.0,0.0]",-0.6199832252986729,-0.058737965373788024,9.791851074796915,"[0.0,0.0,0.0,0.0,0.0,0.0,0.0,0.0,0.0]"
1786663933303901019,2026-08-13T23:32:13.303901+00:00,14070378996286,3.714431557,1786663933,207090504,1786663933207090504,2026-08-13T23:32:13.207090+00:00,base_link,,,,,-0.022706130519509315,0.022326478734612465,0.6396637558937073,0.7679949402809143,"[0.0,0.0,0.0,0.0,0.0,0.0,0.0,0.0,0.0]",0.0005828815684998168,0.0004541495238807418,0.0030692570059851184,"[0.0,0.0,0.0,0.0,0.0,0.0,0.0,0.0,0.0]",-0.6186907012701034,-0.05899042403120547,9.802964004963636,"[0.0,0.0,0.0,0.0,0.0,0.0,0.0,0.0,0.0]"
1786663933324938054,2026-08-13T23:32:13.324938+00:00,14070400033193,3.735468464,1786663933,229290421,1786663933229290421,2026-08-13T23:32:13.229290+00:00,base_link,,,,,-0.0227134320884943,0.022321945056319237,0.6396636366844177,0.7679949998855591,"[0.0,0.0,0.0,0.0,0.0,0.0,0.0,0.0,0.0]",0.0011167995939794684,-0.0008741906901225913,-0.0025299853505211622,"[0.0,0.0,0.0,0.0,0.0,0.0,0.0,0.0,0.0]",-0.6169919345282018,-0.062141764201596374,9.797168470427394,"[0.0,0.0,0.0,0.0,0.0,0.0,0.0,0.0,0.0]"
1786663933346550097,2026-08-13T23:32:13.346550+00:00,14070421645300,3.757080571,1786663933,253200379,1786663933253200379,2026-08-13T23:32:13.253200+00:00,base_link,,,,,-0.02271566540002823,0.022325895726680756,0.6396635174751282,0.7679948806762695,"[0.0,0.0,0.0,0.0,0.0,0.0,0.0,0.0,0.0]",0.0005727880189201051,0.002576838000280817,0.00014209305423812062,"[0.0,0.0,0.0,0.0,0.0,0.0,0.0,0.0,0.0]",-0.6328234176494181,-0.06534692605161108,9.79145009278059,"[0.0,0.0,0.0,0.0,0.0,0.0,0.0,0.0,0.0]"
1786663933368831860,2026-08-13T23:32:13.368832+00:00,14070443926903,3.779362174,1786663933,275070713,1786663933275070713,2026-08-13T23:32:13.275071+00:00,base_link,,,,,-0.022726409137248993,0.02231430634856224,0.6396631598472595,0.7679951786994934,"[0.0,0.0,0.0,0.0,0.0,0.0,0.0,0.0,0.0]",-0.005236869095856237,-0.002254332833312774,0.0022786138924623814,"[0.0,0.0,0.0,0.0,0.0,0.0,0.0,0.0,0.0]",-0.6201819627411663,-0.07345466022009495,9.793775905379652,"[0.0,0.0,0.0,0.0,0.0,0.0,0.0,0.0,0.0]"
1786663933391658427,2026-08-13T23:32:13.391659+00:00,14070466753566,3.802188837,1786663933,294929713,1786663933294929713,2026-08-13T23:32:13.294930+00:00,base_link,,,,,-0.022720739245414734,0.022280290722846985,0.6396632790565491,0.7679962515830994,"[0.0,0.0,0.0,0.0,0.0,0.0,0.0,0.0,0.0]",-0.0012865644101273856,0.002567430331715247,-0.0006497850384724886,"[0.0,0.0,0.0,0.0,0.0,0.0,0.0,0.0,0.0]",-0.6107954910408705,-0.0601072261666879,9.783101366630197,"[0.0,0.0,0.0,0.0,0.0,0.0,0.0,0.0,0.0]"
1786663933412394854,2026-08-13T23:32:13.412395+00:00,14070487490025,3.822925296,1786663933,317191463,1786663933317191463,2026-08-13T23:32:13.317191+00:00,base_link,,,,,-0.022722989320755005,0.022248294204473495,0.6396631002426147,0.7679972648620605,"[0.0,0.0,0.0,0.0,0.0,0.0,0.0,0.0,0.0]",0.0008821713308657721,-0.003805934697028223,0.001746845771392021,"[0.0,0.0,0.0,0.0,0.0,0.0,0.0,0.0,0.0]",-0.6149339060198515,-0.07403240987570024,9.800803612059354,"[0.0,0.0,0.0,0.0,0.0,0.0,0.0,0.0,0.0]"
1786663933433244292,2026-08-13T23:32:13.433244+00:00,14070508339527,3.843774798,1786663933,339056546,1786663933339056546,2026-08-13T23:32:13.339057+00:00,base_link,,,,,-0.022702090442180634,0.022235726937651634,0.6396636366844177,0.7679978609085083,"[0.0,0.0,0.0,0.0,0.0,0.0,0.0,0.0,0.0]",0.0013766429731817387,-9.292158179495547e-05,-0.003587109200099677,"[0.0,0.0,0.0,0.0,0.0,0.0,0.0,0.0,0.0]",-0.6145077164970338,-0.06395662247068248,9.79932009550333,"[0.0,0.0,0.0,0.0,0.0,0.0,0.0,0.0,0.0]"
1786663933454811413,2026-08-13T23:32:13.454811+00:00,14070529906456,3.865341727,1786663933,359108921,1786663933359108921,2026-08-13T23:32:13.359109+00:00,base_link,,,,,-0.02271091938018799,0.022229472175240517,0.6396633982658386,0.7679979205131531,"[0.0,0.0,0.0,0.0,0.0,0.0,0.0,0.0,0.0]",-0.0004813514127581231,-9.199399420482814e-05,-0.00012594390156109046,"[0.0,0.0,0.0,0.0,0.0,0.0,0.0,0.0,0.0]",-0.6244423966646194,-0.06798589168649632,9.794044785448909,"[0.0,0.0,0.0,0.0,0.0,0.0,0.0,0.0,0.0]"
1786663933476637257,2026-08-13T23:32:13.476637+00:00,14070551732396,3.887167667,1786663933,377412754,1786663933377412754,2026-08-13T23:32:13.377413+00:00,base_link,,,,,-0.02269698865711689,0.022216055542230606,0.6396636962890625,0.767998456954956,"[0.0,0.0,0.0,0.0,0.0,0.0,0.0,0.0,0.0]",0.0024354441721206503,0.0009948623161992296,0.00042146926687083007,"[0.0,0.0,0.0,0.0,0.0,0.0,0.0,0.0,0.0]",-0.6208822199650108,-0.05894164841945748,9.78881857523322,"[0.0,0.0,0.0,0.0,0.0,0.0,0.0,0.0,0.0]"
1786663933497255617,2026-08-13T23:32:13.497256+00:00,14070572350820,3.907786091,1786663933,399068129,1786663933399068129,2026-08-13T23:32:13.399068+00:00,base_link,,,,,-0.022699596360325813,0.02222489006817341,0.6396636366844177,0.767998218536377,"[0.0,0.0,0.0,0.0,0.0,0.0,0.0,0.0,0.0]",-0.0033725840321383637,-0.0030382259777991913,0.0009262332530788354,"[0.0,0.0,0.0,0.0,0.0,0.0,0.0,0.0,0.0]",-0.6084075364584103,-0.048136437061615286,9.798527483820914,"[0.0,0.0,0.0,0.0,0.0,0.0,0.0,0.0,0.0]"
1786663933517377359,2026-08-13T23:32:13.517377+00:00,14070592472498,3.927907769,1786663933,419190213,1786663933419190213,2026-08-13T23:32:13.419190+00:00,base_link,,,,,-0.022687507793307304,0.022243984043598175,0.6396641731262207,0.7679975628852844,"[0.0,0.0,0.0,0.0,0.0,0.0,0.0,0.0,0.0]",-0.0009973283409508047,-0.0011579664988415341,0.001997829198557599,"[0.0,0.0,0.0,0.0,0.0,0.0,0.0,0.0,0.0]",-0.6286729469064622,-0.0594311352697201,9.804123696392773,"[0.0,0.0,0.0,0.0,0.0,0.0,0.0,0.0,0.0]"
1786663933539177062,2026-08-13T23:32:13.539177+00:00,14070614272073,3.949707344,1786663933,441196754,1786663933441196754,2026-08-13T23:32:13.441197+00:00,base_link,,,,,-0.02267972193658352,0.022271284833550453,0.6396644711494446,0.7679967284202576,"[0.0,0.0,0.0,0.0,0.0,0.0,0.0,0.0,0.0]",-0.0012691112122744967,0.0009712523138272274,-0.00012788732321081556,"[0.0,0.0,0.0,0.0,0.0,0.0,0.0,0.0,0.0]",-0.6292728855609894,-0.056806138794682916,9.80773136549592,"[0.0,0.0,0.0,0.0,0.0,0.0,0.0,0.0,0.0]"
1786663933559414119,2026-08-13T23:32:13.559414+00:00,14070634509290,3.969944561,1786663933,461215879,1786663933461215879,2026-08-13T23:32:13.461216+00:00,base_link,,,,,-0.02265768125653267,0.022283686324954033,0.6396651864051819,0.7679964900016785,"[0.0,0.0,0.0,0.0,0.0,0.0,0.0,0.0,0.0]",-0.0009828713943799989,-0.004088024313859712,-0.0022488457851996403,"[0.0,0.0,0.0,0.0,0.0,0.0,0.0,0.0,0.0]",-0.619742402280122,-0.058305318710720165,9.795946819677948,"[0.0,0.0,0.0,0.0,0.0,0.0,0.0,0.0,0.0]"
1786663933579706179,2026-08-13T23:32:13.579706+00:00,14070654801350,3.990236621,1786663933,480990296,1786663933480990296,2026-08-13T23:32:13.480990+00:00,base_link,,,,,-0.022678256034851074,0.02228984236717224,0.6396645903587341,0.7679961323738098,"[0.0,0.0,0.0,0.0,0.0,0.0,0.0,0.0,0.0]",0.0005985464952926096,-0.0011454111507180316,0.0020014848032726532,"[0.0,0.0,0.0,0.0,0.0,0.0,0.0,0.0,0.0]",-0.6277837429817765,-0.05792610556820873,9.817907891595363,"[0.0,0.0,0.0,0.0,0.0,0.0,0.0,0.0,0.0]"
1786663933601391270,2026-08-13T23:32:13.601391+00:00,14070676486377,4.011921648,1786663933,502984296,1786663933502984296,2026-08-13T23:32:13.502984+00:00,base_link,,,,,-0.022676028311252594,0.02228199504315853,0.6396645903587341,0.7679964900016785,"[0.0,0.0,0.0,0.0,0.0,0.0,0.0,0.0,0.0]",-0.0033789740583086026,-0.0014426966502968095,0.001723024783723698,"[0.0,0.0,0.0,0.0,0.0,0.0,0.0,0.0,0.0]",-0.6245407424725592,-0.0702956618996337,9.7913589073658,"[0.0,0.0,0.0,0.0,0.0,0.0,0.0,0.0,0.0]"
1786663933621848432,2026-08-13T23:32:13.621848+00:00,14070696943571,4.032378842,1786663933,523111046,1786663933523111046,2026-08-13T23:32:13.523111+00:00,base_link,,,,,-0.02267923206090927,0.022272804751992226,0.6396644711494446,0.7679967284202576,"[0.0,0.0,0.0,0.0,0.0,0.0,0.0,0.0,0.0]",-0.0017845219586612115,-0.001967663567688785,0.004671330713769748,"[0.0,0.0,0.0,0.0,0.0,0.0,0.0,0.0,0.0]",-0.6099951344434171,-0.07114246058785356,9.798270294189452,"[0.0,0.0,0.0,0.0,0.0,0.0,0.0,0.0,0.0]"
1786663933643016396,2026-08-13T23:32:13.643016+00:00,14070718111599,4.05354687,1786663933,545119921,1786663933545119921,2026-08-13T23:32:13.545120+00:00,base_link,,,,,-0.02267361432313919,0.022275296971201897,0.6396645903587341,0.7679966688156128,"[0.0,0.0,0.0,0.0,0.0,0.0,0.0,0.0,0.0]",-0.0036539652065079994,0.00014966628855087087,0.0025395045909722444,"[0.0,0.0,0.0,0.0,0.0,0.0,0.0,0.0,0.0]",-0.6253801159061491,-0.05575332353981211,9.787810859495401,"[0.0,0.0,0.0,0.0,0.0,0.0,0.0,0.0,0.0]"
1786663933664376371,2026-08-13T23:32:13.664376+00:00,14070739471542,4.074906813,1786663933,566846754,1786663933566846754,2026-08-13T23:32:13.566847+00:00,base_link,,,,,-0.02264687418937683,0.022301439195871353,0.6396655440330505,0.7679960131645203,"[0.0,0.0,0.0,0.0,0.0,0.0,0.0,0.0,0.0]",-0.0028514840298506693,-0.0006343156875722486,0.0012056997602663262,"[0.0,0.0,0.0,0.0,0.0,0.0,0.0,0.0,0.0]",-0.6164539551939815,-0.042851865988504136,9.792116447734832,"[0.0,0.0,0.0,0.0,0.0,0.0,0.0,0.0,0.0]"
1786663933685084097,2026-08-13T23:32:13.685084+00:00,14070760179172,4.095614443,1786663933,585015838,1786663933585015838,2026-08-13T23:32:13.585016+00:00,base_link,,,,,-0.022634368389844894,0.022306911647319794,0.6396659016609192,0.7679958939552307,"[0.0,0.0,0.0,0.0,0.0,0.0,0.0,0.0,0.0]",-0.0012789958571524892,0.0020311679962682154,-0.0027782944334006775,"[0.0,0.0,0.0,0.0,0.0,0.0,0.0,0.0,0.0]",-0.6223552151270211,-0.06778402157200035,9.788757784956694,"[0.0,0.0,0.0,0.0,0.0,0.0,0.0,0.0,0.0]"
1786663933706857883,2026-08-13T23:32:13.706858+00:00,14070781952990,4.117388261,1786663933,609102838,1786663933609102838,2026-08-13T23:32:13.609103+00:00,base_link,,,,,-0.022652767598628998,0.02231607399880886,0.6396653056144714,0.7679955959320068,"[0.0,0.0,0.0,0.0,0.0,0.0,0.0,0.0,0.0]",5.333766807717414e-05,0.0015056068090431509,-0.0011985689123807466,"[0.0,0.0,0.0,0.0,0.0,0.0,0.0,0.0,0.0]",-0.628217092897743,-0.06318279768712819,9.792432089555263,"[0.0,0.0,0.0,0.0,0.0,0.0,0.0,0.0,0.0]"
1786663933728016088,2026-08-13T23:32:13.728016+00:00,14070803111259,4.13854653,1786663933,630998254,1786663933630998254,2026-08-13T23:32:13.630998+00:00,base_link,,,,,-0.02264973148703575,0.022324271500110626,0.639665424823761,0.767995297908783,"[0.0,0.0,0.0,0.0,0.0,0.0,0.0,0.0,0.0]",-0.0025995110198776938,0.0004266857401578809,-0.002234861848807798,"[0.0,0.0,0.0,0.0,0.0,0.0,0.0,0.0,0.0]",-0.6133839000988751,-0.06921290816422551,9.793981072562932,"[0.0,0.0,0.0,0.0,0.0,0.0,0.0,0.0,0.0]"
1786663933749203537,2026-08-13T23:32:13.749203+00:00,14070824298741,4.159734012,1786663933,651224171,1786663933651224171,2026-08-13T23:32:13.651224+00:00,base_link,,,,,-0.022656317800283432,0.022299224510788918,0.6396651864051819,0.7679959535598755,"[0.0,0.0,0.0,0.0,0.0,0.0,0.0,0.0,0.0]",0.0005931594457575162,-0.0003487388641512746,-0.0022540480519266767,"[0.0,0.0,0.0,0.0,0.0,0.0,0.0,0.0,0.0]",-0.6173020964559167,-0.07731511220764369,9.793816237390041,"[0.0,0.0,0.0,0.0,0.0,0.0,0.0,0.0,0.0]"
1786663933769791821,2026-08-13T23:32:13.769792+00:00,14070844886704,4.180321975,1786663933,671142379,1786663933671142379,2026-08-13T23:32:13.671142+00:00,base_link,,,,,-0.022657928988337517,0.022270089015364647,0.6396650671958923,0.7679969072341919,"[0.0,0.0,0.0,0.0,0.0,0.0,0.0,0.0,0.0]",-0.0007328928944070056,-0.0006304150928428531,-0.00039827037698839275,"[0.0,0.0,0.0,0.0,0.0,0.0,0.0,0.0,0.0]",-0.6208844849873334,-0.05995020897407084,9.799347568032145,"[0.0,0.0,0.0,0.0,0.0,0.0,0.0,0.0,0.0]"
1786663933791262978,2026-08-13T23:32:13.791263+00:00,14070866358149,4.20179342,1786663933,692985296,1786663933692985296,2026-08-13T23:32:13.692985+00:00,base_link,,,,,-0.02265273779630661,0.022258445620536804,0.6396651268005371,0.7679973244667053,"[0.0,0.0,0.0,0.0,0.0,0.0,0.0,0.0,0.0]",0.000590158188044673,-0.00035643290298808167,0.0022753366958904978,"[0.0,0.0,0.0,0.0,0.0,0.0,0.0,0.0,0.0]",-0.6231451964609325,-0.059713272112770936,9.79209949660003,"[0.0,0.0,0.0,0.0,0.0,0.0,0.0,0.0,0.0]"
1786663933812438893,2026-08-13T23:32:13.812439+00:00,14070887534096,4.222969367,1786663933,714902004,1786663933714902004,2026-08-13T23:32:13.714902+00:00,base_link,,,,,-0.02267138659954071,0.02227473072707653,0.6396645903587341,0.7679967284202576,"[0.0,0.0,0.0,0.0,0.0,0.0,0.0,0.0,0.0]",0.0002997260370464833,0.004446003878859776,0.002265611476573855,"[0.0,0.0,0.0,0.0,0.0,0.0,0.0,0.0,0.0]",-0.6245169232055544,-0.06419971507813316,9.78878233487606,"[0.0,0.0,0.0,0.0,0.0,0.0,0.0,0.0,0.0]"
1786663933834539345,2026-08-13T23:32:13.834539+00:00,14070909634580,4.245069851,1786663933,737081504,1786663933737081504,2026-08-13T23:32:13.737082+00:00,base_link,,,,,-0.02268291637301445,0.022278044372797012,0.6396642923355103,0.7679965496063232,"[0.0,0.0,0.0,0.0,0.0,0.0,0.0,0.0,0.0]",0.0027205745779624135,-0.00166980837530065,-0.0019925169203910014,"[0.0,0.0,0.0,0.0,0.0,0.0,0.0,0.0,0.0]",-0.6159085232056677,-0.058825059135351326,9.797613291585446,"[0.0,0.0,0.0,0.0,0.0,0.0,0.0,0.0,0.0]"
1786663933856357217,2026-08-13T23:32:13.856357+00:00,14070931452420,4.266887691,1786663933,758979838,1786663933758979838,2026-08-13T23:32:13.758980+00:00,base_link,,,,,-0.022678809240460396,0.022266708314418793,0.639664351940155,0.7679969668388367,"[0.0,0.0,0.0,0.0,0.0,0.0,0.0,0.0,0.0]",0.002175904949841705,0.0004610950037910331,-0.001712305950447617,"[0.0,0.0,0.0,0.0,0.0,0.0,0.0,0.0,0.0]",-0.6274322261303663,-0.06784907703169156,9.794244107413292,"[0.0,0.0,0.0,0.0,0.0,0.0,0.0,0.0,0.0]"
1786663933877866205,2026-08-13T23:32:13.877866+00:00,14070952961344,4.288396615,1786663933,779136338,1786663933779136338,2026-08-13T23:32:13.779136+00:00,base_link,,,,,-0.02268398553133011,0.022257547825574875,0.6396642327308655,0.7679972052574158,"[0.0,0.0,0.0,0.0,0.0,0.0,0.0,0.0,0.0]",-0.002865721018560935,0.0009600942150158784,0.0011890314667269003,"[0.0,0.0,0.0,0.0,0.0,0.0,0.0,0.0,0.0]",-0.6156733992755413,-0.06822214356120676,9.79529040159583,"[0.0,0.0,0.0,0.0,0.0,0.0,0.0,0.0,0.0]"
1786663933898278216,2026-08-13T23:32:13.898278+00:00,14070973373419,4.30880869,1786663933,799018963,1786663933799018963,2026-08-13T23:32:13.799019+00:00,base_link,,,,,-0.022692788392305374,0.022249847650527954,0.6396639347076416,0.7679973840713501,"[0.0,0.0,0.0,0.0,0.0,0.0,0.0,0.0,0.0]",0.0008547487039048745,0.002048332901731617,0.001988375236762143,"[0.0,0.0,0.0,0.0,0.0,0.0,0.0,0.0,0.0]",-0.6243009423673153,-0.06998584703179075,9.804944949647783,"[0.0,0.0,0.0,0.0,0.0,0.0,0.0,0.0,0.0]"
1786663933919573677,2026-08-13T23:32:13.919574+00:00,14070994668816,4.330104087,1786663933,821311629,1786663933821311629,2026-08-13T23:32:13.821312+00:00,base_link,,,,,-0.0226825512945652,0.02224232442677021,0.6396642327308655,0.767997682094574,"[0.0,0.0,0.0,0.0,0.0,0.0,0.0,0.0,0.0]",0.00243972187462159,0.0017923934982249695,-0.0011842363463559688,"[0.0,0.0,0.0,0.0,0.0,0.0,0.0,0.0,0.0]",-0.6153606800645589,-0.05920598931091372,9.793467277821899,"[0.0,0.0,0.0,0.0,0.0,0.0,0.0,0.0,0.0]"
1786663933940009111,2026-08-13T23:32:13.940009+00:00,14071015104282,4.350539553,1786663933,842926754,1786663933842926754,2026-08-13T23:32:13.842927+00:00,base_link,,,,,-0.02268516831099987,0.02223769575357437,0.6396641135215759,0.7679978609085083,"[0.0,0.0,0.0,0.0,0.0,0.0,0.0,0.0,0.0]",0.0008571857303691898,-9.06785382679511e-05,-0.00252291835088242,"[0.0,0.0,0.0,0.0,0.0,0.0,0.0,0.0,0.0]",-0.6205714735154062,-0.06856434459500015,9.809495452558993,"[0.0,0.0,0.0,0.0,0.0,0.0,0.0,0.0,0.0]"
1786663933962186488,2026-08-13T23:32:13.962187+00:00,14071037281403,4.372716674,1786663933,863242213,1786663933863242213,2026-08-13T23:32:13.863242+00:00,base_link,,,,,-0.02268625795841217,0.0222336333245039,0.6396640539169312,0.7679979801177979,"[0.0,0.0,0.0,0.0,0.0,0.0,0.0,0.0,0.0]",-0.0012618707430608438,-0.0011616853016176124,-0.0027786403322531974,"[0.0,0.0,0.0,0.0,0.0,0.0,0.0,0.0,0.0]",-0.6295461495444178,-0.05777860968918539,9.802520352849363,"[0.0,0.0,0.0,0.0,0.0,0.0,0.0,0.0,0.0]"
1786663933982860119,2026-08-13T23:32:13.982860+00:00,14071057955226,4.393390497,1786663933,883057171,1786663933883057171,2026-08-13T23:32:13.883057+00:00,base_link,,,,,-0.022706488147377968,0.022248651832342148,0.6396634578704834,0.7679973840713501,"[0.0,0.0,0.0,0.0,0.0,0.0,0.0,0.0,0.0]",0.0032393266292421743,0.002058533146803243,-0.0006631290619871693,"[0.0,0.0,0.0,0.0,0.0,0.0,0.0,0.0,0.0]",-0.6170615656983107,-0.06039641380503308,9.801718973338604,"[0.0,0.0,0.0,0.0,0.0,0.0,0.0,0.0,0.0]"
1786663934003529559,2026-08-13T23:32:14.003530+00:00,14071078624410,4.414059681,1786663933,905058463,1786663933905058463,2026-08-13T23:32:13.905059+00:00,base_link,,,,,-0.022685443982481956,0.022243356332182884,0.6396641731262207,0.7679976224899292,"[0.0,0.0,0.0,0.0,0.0,0.0,0.0,0.0,0.0]",0.0016668211616013675,-0.00035258828925718627,0.00040518718370433044,"[0.0,0.0,0.0,0.0,0.0,0.0,0.0,0.0,0.0]",-0.6291892989307641,-0.06668597893591505,9.790919931426643,"[0.0,0.0,0.0,0.0,0.0,0.0,0.0,0.0,0.0]"
1786663934024605062,2026-08-13T23:32:14.024605+00:00,14071099700201,4.435135472,1786663933,927013380,1786663933927013380,2026-08-13T23:32:13.927013+00:00,base_link,,,,,-0.022711459547281265,0.022237950935959816,0.6396633386611938,0.7679977416992188,"[0.0,0.0,0.0,0.0,0.0,0.0,0.0,0.0,0.0]",-0.003933409867452173,0.002017290560312543,0.0022754409856949043,"[0.0,0.0,0.0,0.0,0.0,0.0,0.0,0.0,0.0]",-0.6276293561376631,-0.06101958720467519,9.805951496341825,"[0.0,0.0,0.0,0.0,0.0,0.0,0.0,0.0,0.0]"
1786663934045732690,2026-08-13T23:32:14.045732+00:00,14071120827702,4.456262973,1786663933,949005338,1786663933949005338,2026-08-13T23:32:13.949005+00:00,base_link,,,,,-0.02271883562207222,0.022249866276979446,0.63966304063797,0.7679973840713501,"[0.0,0.0,0.0,0.0,0.0,0.0,0.0,0.0,0.0]",0.0016379240432537313,0.0017817487861315714,0.0009351366375278368,"[0.0,0.0,0.0,0.0,0.0,0.0,0.0,0.0,0.0]",-0.6287593100156634,-0.05804828890946228,9.793585935765504,"[0.0,0.0,0.0,0.0,0.0,0.0,0.0,0.0,0.0]"
1786663934067221712,2026-08-13T23:32:14.067222+00:00,14071142316851,4.477752122,1786663933,968994130,1786663933968994130,2026-08-13T23:32:13.968994+00:00,base_link,,,,,-0.02272912859916687,0.022270167246460915,0.6396628022193909,0.7679966688156128,"[0.0,0.0,0.0,0.0,0.0,0.0,0.0,0.0,0.0]",0.0013774658483466811,0.002053744788364767,-0.001742500969715179,"[0.0,0.0,0.0,0.0,0.0,0.0,0.0,0.0,0.0]",-0.6218735690899193,-0.05998254947424866,9.803411164209246,"[0.0,0.0,0.0,0.0,0.0,0.0,0.0,0.0,0.0]"
1786663934088186851,2026-08-13T23:32:14.088187+00:00,14071163282022,4.498717293,1786663933,989205755,1786663933989205755,2026-08-13T23:32:13.989206+00:00,base_link,,,,,-0.022709717974066734,0.02227545902132988,0.6396634578704834,0.767996609210968,"[0.0,0.0,0.0,0.0,0.0,0.0,0.0,0.0,0.0]",-0.0007268588449693882,-0.00035416739554123785,-0.0004059245594348625,"[0.0,0.0,0.0,0.0,0.0,0.0,0.0,0.0,0.0]",-0.6227175456333905,-0.06555686987470835,9.7911321128726,"[0.0,0.0,0.0,0.0,0.0,0.0,0.0,0.0,0.0]"
1786663934109985972,2026-08-13T23:32:14.109986+00:00,14071185081111,4.520516382,1786663934,8981630,1786663934008981630,2026-08-13T23:32:14.008981+00:00,base_link,,,,,-0.02270611561834812,0.02229035459458828,0.639663577079773,0.7679961323738098,"[0.0,0.0,0.0,0.0,0.0,0.0,0.0,0.0,0.0]",-0.0007406236037236663,0.0017735360290531466,0.0012010275250140534,"[0.0,0.0,0.0,0.0,0.0,0.0,0.0,0.0,0.0]",-0.6242879367552697,-0.06007346089440398,9.788000244587659,"[0.0,0.0,0.0,0.0,0.0,0.0,0.0,0.0,0.0]"
1786663934132164309,2026-08-13T23:32:14.132164+00:00,14071207259416,4.542694687,1786663934,32926588,1786663934032926588,2026-08-13T23:32:14.032927+00:00,base_link,,,,,-0.022697322070598602,0.02228100225329399,0.639663815498352,0.7679964900016785,"[0.0,0.0,0.0,0.0,0.0,0.0,0.0,0.0,0.0]",-0.00021598519271371277,0.0017786757479049719,-0.0011964386435830083,"[0.0,0.0,0.0,0.0,0.0,0.0,0.0,0.0,0.0]",-0.6268805835969746,-0.05698776527217123,9.794567932540177,"[0.0,0.0,0.0,0.0,0.0,0.0,0.0,0.0,0.0]"
1786663934154205339,2026-08-13T23:32:14.154205+00:00,14071229300510,4.564735781,1786663934,54980671,1786663934054980671,2026-08-13T23:32:14.054981+00:00,base_link,,,,,-0.022697044536471367,0.022294022142887115,0.6396638751029968,0.767996072769165,"[0.0,0.0,0.0,0.0,0.0,0.0,0.0,0.0,0.0]",5.852784134808881e-05,0.0009787189826852257,-0.0009150577292876979,"[0.0,0.0,0.0,0.0,0.0,0.0,0.0,0.0,0.0]",-0.6256291952963918,-0.062493755977042015,9.801749368476868,"[0.0,0.0,0.0,0.0,0.0,0.0,0.0,0.0,0.0]"
1786663934174668643,2026-08-13T23:32:14.174669+00:00,14071249763814,4.585199085,1786663934,75169838,1786663934075169838,2026-08-13T23:32:14.075170+00:00,base_link,,,,,-0.022700875997543335,0.02230900153517723,0.6396637558937073,0.7679955959320068,"[0.0,0.0,0.0,0.0,0.0,0.0,0.0,0.0,0.0]",-0.0033745694395369637,-0.0019738841554361544,0.0014852461102716544,"[0.0,0.0,0.0,0.0,0.0,0.0,0.0,0.0,0.0]",-0.6180974115520715,-0.06360691398386843,9.77999697087407,"[0.0,0.0,0.0,0.0,0.0,0.0,0.0,0.0,0.0]"
1786663934196699690,2026-08-13T23:32:14.196700+00:00,14071271794829,4.6072301,1786663934,95002005,1786663934095002005,2026-08-13T23:32:14.095002+00:00,base_link,,,,,-0.022708648815751076,0.02228558622300625,0.6396634578704834,0.7679963111877441,"[0.0,0.0,0.0,0.0,0.0,0.0,0.0,0.0,0.0]",0.0013957083717765612,0.0004648045739285668,0.0006777717666447515,"[0.0,0.0,0.0,0.0,0.0,0.0,0.0,0.0,0.0]",-0.6251881735306233,-0.06482795281196013,9.792906721329688,"[0.0,0.0,0.0,0.0,0.0,0.0,0.0,0.0,0.0]"
1786663934217243311,2026-08-13T23:32:14.217243+00:00,14071292338418,4.627773689,1786663934,119136838,1786663934119136838,2026-08-13T23:32:14.119137+00:00,base_link,,,,,-0.02271617017686367,0.022290285676717758,0.6396632194519043,0.7679961323738098,"[0.0,0.0,0.0,0.0,0.0,0.0,0.0,0.0,0.0]",7.912462258828831e-05,-0.003288587827327534,-0.00011865930098537964,"[0.0,0.0,0.0,0.0,0.0,0.0,0.0,0.0,0.0]",-0.6349623293742537,-0.05398037275027018,9.806190565794706,"[0.0,0.0,0.0,0.0,0.0,0.0,0.0,0.0,0.0]"
1786663934238558420,2026-08-13T23:32:14.238559+00:00,14071313653495,4.649088766,1786663934,140914713,1786663934140914713,2026-08-13T23:32:14.140915+00:00,base_link,,,,,-0.022727716714143753,0.02227826602756977,0.6396628618240356,0.7679965496063232,"[0.0,0.0,0.0,0.0,0.0,0.0,0.0,0.0,0.0]",-0.0002105976880485503,0.001508342790944287,-0.0001258335162646871,"[0.0,0.0,0.0,0.0,0.0,0.0,0.0,0.0,0.0]",-0.6175117206186056,-0.07438545196391641,9.795082896324992,"[0.0,0.0,0.0,0.0,0.0,0.0,0.0,0.0,0.0]"
1786663934258804102,2026-08-13T23:32:14.258804+00:00,14071333899209,4.66933448,1786663934,160998880,1786663934160998880,2026-08-13T23:32:14.160999+00:00,base_link,,,,,-0.022746313363313675,0.022279104217886925,0.6396623253822327,0.7679963707923889,"[0.0,0.0,0.0,0.0,0.0,0.0,0.0,0.0,0.0]",0.002709443916992373,0.0015220177590377886,-0.003587046522187303,"[0.0,0.0,0.0,0.0,0.0,0.0,0.0,0.0,0.0]",-0.6288235343582927,-0.06300947324710432,9.80042016569972,"[0.0,0.0,0.0,0.0,0.0,0.0,0.0,0.0,0.0]"
1786663934278933244,2026-08-13T23:32:14.278933+00:00,14071354028447,4.689463718,1786663934,179002005,1786663934179002005,2026-08-13T23:32:14.179002+00:00,base_link,,,,,-0.022752156481146812,0.02227799780666828,0.6396620273590088,0.7679963707923889,"[0.0,0.0,0.0,0.0,0.0,0.0,0.0,0.0,0.0]",-0.0012659432469191983,0.0004407932118541952,0.0012069491573246018,"[0.0,0.0,0.0,0.0,0.0,0.0,0.0,0.0,0.0]",-0.6257608588520437,-0.06784377523548901,9.794853179222345,"[0.0,0.0,0.0,0.0,0.0,0.0,0.0,0.0,0.0]"
1786663934299690168,2026-08-13T23:32:14.299690+00:00,14071374785339,4.71022061,1786663934,201096630,1786663934201096630,2026-08-13T23:32:14.201097+00:00,base_link,,,,,-0.022746603935956955,0.02228431962430477,0.6396622061729431,0.7679962515830994,"[0.0,0.0,0.0,0.0,0.0,0.0,0.0,0.0,0.0]",0.0003450688253111718,-0.0032787515562740298,0.00013426902700264804,"[0.0,0.0,0.0,0.0,0.0,0.0,0.0,0.0,0.0]",-0.6213528331514447,-0.054924978390312754,9.793504102700949,"[0.0,0.0,0.0,0.0,0.0,0.0,0.0,0.0,0.0]"
1786663934320930592,2026-08-13T23:32:14.320930+00:00,14071396025571,4.731460842,1786663934,222957630,1786663934222957630,2026-08-13T23:32:14.222958+00:00,base_link,,,,,-0.022744234651327133,0.022293921560049057,0.6396622657775879,0.7679960131645203,"[0.0,0.0,0.0,0.0,0.0,0.0,0.0,0.0,0.0]",0.0019396250847258066,-0.0027383230902115704,-0.0009125818217117647,"[0.0,0.0,0.0,0.0,0.0,0.0,0.0,0.0,0.0]",-0.6224257230799645,-0.06588822072092443,9.79935750490427,"[0.0,0.0,0.0,0.0,0.0,0.0,0.0,0.0,0.0]"
1786663934342027918,2026-08-13T23:32:14.342028+00:00,14071417123025,4.752558296,1786663934,245088421,1786663934245088421,2026-08-13T23:32:14.245089+00:00,base_link,,,,,-0.022743353620171547,0.02230667695403099,0.6396624445915222,0.7679955363273621,"[0.0,0.0,0.0,0.0,0.0,0.0,0.0,0.0,0.0]",0.0003375059939714297,-0.0003529055149153527,-0.001995165387281707,"[0.0,0.0,0.0,0.0,0.0,0.0,0.0,0.0,0.0]",-0.6200937730010598,-0.03991752043650485,9.810652805900574,"[0.0,0.0,0.0,0.0,0.0,0.0,0.0,0.0,0.0]"
1786663934362424985,2026-08-13T23:32:14.362425+00:00,14071437519932,4.772955203,1786663934,265093255,1786663934265093255,2026-08-13T23:32:14.265093+00:00,base_link,,,,,-0.022721044719219208,0.02230844460427761,0.6396632194519043,0.7679955363273621,"[0.0,0.0,0.0,0.0,0.0,0.0,0.0,0.0,0.0]",0.002448445287637551,0.0012556523659452389,0.0009405321394784992,"[0.0,0.0,0.0,0.0,0.0,0.0,0.0,0.0,0.0]",-0.6280719853386283,-0.05491270343062933,9.782345579826831,"[0.0,0.0,0.0,0.0,0.0,0.0,0.0,0.0,0.0]"
1786663934382821764,2026-08-13T23:32:14.382822+00:00,14071457916871,4.793352142,1786663934,284890130,1786663934284890130,2026-08-13T23:32:14.284890+00:00,base_link,,,,,-0.02270941063761711,0.02232401818037033,0.6396635174751282,0.7679951190948486,"[0.0,0.0,0.0,0.0,0.0,0.0,0.0,0.0,0.0]",-0.0012812491411060482,0.0014922753991332427,-0.0009220837672202208,"[0.0,0.0,0.0,0.0,0.0,0.0,0.0,0.0,0.0]",-0.6109150622999295,-0.06005507585434243,9.793453833818434,"[0.0,0.0,0.0,0.0,0.0,0.0,0.0,0.0,0.0]"
1786663934403384648,2026-08-13T23:32:14.403385+00:00,14071478479692,4.813914963,1786663934,305084838,1786663934305084838,2026-08-13T23:32:14.305085+00:00,base_link,,,,,-0.02272638864815235,0.022313399240374565,0.6396629214286804,0.7679954171180725,"[0.0,0.0,0.0,0.0,0.0,0.0,0.0,0.0,0.0]",0.0003222473032746041,0.0015141289245314046,0.0009293389306332477,"[0.0,0.0,0.0,0.0,0.0,0.0,0.0,0.0,0.0]",-0.6223050923749804,-0.07340422237422317,9.791182381755114,"[0.0,0.0,0.0,0.0,0.0,0.0,0.0,0.0,0.0]"
1786663934424669999,2026-08-13T23:32:14.424670+00:00,14071499765042,4.835200313,1786663934,327000671,1786663934327000671,2026-08-13T23:32:14.327001+00:00,base_link,,,,,-0.02274301089346409,0.022299781441688538,0.639662504196167,0.7679957151412964,"[0.0,0.0,0.0,0.0,0.0,0.0,0.0,0.0,0.0]",0.0037738547890887515,0.000727488289854961,-0.0038477138168518167,"[0.0,0.0,0.0,0.0,0.0,0.0,0.0,0.0,0.0]",-0.6248385563753545,-0.06550969713157974,9.78865023292899,"[0.0,0.0,0.0,0.0,0.0,0.0,0.0,0.0,0.0]"
1786663934445244722,2026-08-13T23:32:14.445245+00:00,14071520339765,4.855775036,1786663934,346969338,1786663934346969338,2026-08-13T23:32:14.346969+00:00,base_link,,,,,-0.022743701934814453,0.022309832274913788,0.6396623849868774,0.7679954171180725,"[0.0,0.0,0.0,0.0,0.0,0.0,0.0,0.0,0.0]",-0.0028498944555750286,-0.0009066743634519401,0.00440632850025275,"[0.0,0.0,0.0,0.0,0.0,0.0,0.0,0.0,0.0]",-0.6117488827755674,-0.06731539484667591,9.796873286873101,"[0.0,0.0,0.0,0.0,0.0,0.0,0.0,0.0,0.0]"
1786663934467467857,2026-08-13T23:32:14.467468+00:00,14071542562996,4.877998267,1786663934,368996005,1786663934368996005,2026-08-13T23:32:14.368996+00:00,base_link,,,,,-0.022741228342056274,0.022308621555566788,0.6396624445915222,0.7679955363273621,"[0.0,0.0,0.0,0.0,0.0,0.0,0.0,0.0,0.0]",0.0011272322154606636,-0.0003400826803483789,0.0019971610676161526,"[0.0,0.0,0.0,0.0,0.0,0.0,0.0,0.0,0.0]",-0.6242733237080276,-0.0557760194288101,9.787248549437523,"[0.0,0.0,0.0,0.0,0.0,0.0,0.0,0.0,0.0]"
1786663934488817172,2026-08-13T23:32:14.488817+00:00,14071563911959,4.89934723,1786663934,388934630,1786663934388934630,2026-08-13T23:32:14.388935+00:00,base_link,,,,,-0.022720064967870712,0.022302817553281784,0.6396631598472595,0.7679957151412964,"[0.0,0.0,0.0,0.0,0.0,0.0,0.0,0.0,0.0]",-0.00074269867174588,0.000705360646118035,-0.0022632679468294506,"[0.0,0.0,0.0,0.0,0.0,0.0,0.0,0.0,0.0]",-0.6269228883687407,-0.05746242444606032,9.79441478780508,"[0.0,0.0,0.0,0.0,0.0,0.0,0.0,0.0,0.0]"
1786663934510077404,2026-08-13T23:32:14.510077+00:00,14071585172383,4.920607654,1786663934,411034796,1786663934411034796,2026-08-13T23:32:14.411035+00:00,base_link,,,,,-0.02271774597465992,0.022306986153125763,0.6396631002426147,0.7679957151412964,"[0.0,0.0,0.0,0.0,0.0,0.0,0.0,0.0,0.0]",0.0005939507218919465,-0.0011455335156880396,-0.0017170257793014017,"[0.0,0.0,0.0,0.0,0.0,0.0,0.0,0.0,0.0]",-0.615579729642719,-0.06131144629071932,9.805871416842937,"[0.0,0.0,0.0,0.0,0.0,0.0,0.0,0.0,0.0]"
1786663934530990705,2026-08-13T23:32:14.530991+00:00,14071606085620,4.941520891,1786663934,433087713,1786663934433087713,2026-08-13T23:32:14.433088+00:00,base_link,,,,,-0.022718369960784912,0.02231893502175808,0.6396631002426147,0.767995297908783,"[0.0,0.0,0.0,0.0,0.0,0.0,0.0,0.0,0.0]",0.0013823767017923276,0.0020593802088804294,0.0027989763239637997,"[0.0,0.0,0.0,0.0,0.0,0.0,0.0,0.0,0.0]",-0.6178341575060039,-0.07110999679008964,9.802905552774668,"[0.0,0.0,0.0,0.0,0.0,0.0,0.0,0.0,0.0]"
1786663934551637650,2026-08-13T23:32:14.551638+00:00,14071626732661,4.962167932,1786663934,455009380,1786663934455009380,2026-08-13T23:32:14.455009+00:00,base_link,,,,,-0.02271265536546707,0.022309591993689537,0.6396633386611938,0.7679955363273621,"[0.0,0.0,0.0,0.0,0.0,0.0,0.0,0.0,0.0]",-0.00258787633486541,-0.001445546024603734,-0.0009188809519053452,"[0.0,0.0,0.0,0.0,0.0,0.0,0.0,0.0,0.0]",-0.6207961491167545,-0.05937786614594515,9.801298117578028,"[0.0,0.0,0.0,0.0,0.0,0.0,0.0,0.0,0.0]"
1786663934574317086,2026-08-13T23:32:14.574317+00:00,14071649412161,4.984847432,1786663934,475036088,1786663934475036088,2026-08-13T23:32:14.475036+00:00,base_link,,,,,-0.022707462310791016,0.022312108427286148,0.6396633982658386,0.7679957151412964,"[0.0,0.0,0.0,0.0,0.0,0.0,0.0,0.0,0.0]",-0.0020559992426527895,-0.0006369161057313725,0.0020061020328051454,"[0.0,0.0,0.0,0.0,0.0,0.0,0.0,0.0,0.0]",-0.619389935580641,-0.06831623331913723,9.790995919272303,"[0.0,0.0,0.0,0.0,0.0,0.0,0.0,0.0,0.0]"
1786663934595167318,2026-08-13T23:32:14.595167+00:00,14071670262361,5.005697632,1786663934,495853213,1786663934495853213,2026-08-13T23:32:14.495853+00:00,base_link,,,,,-0.02271798811852932,0.02231389470398426,0.6396629810333252,0.7679955363273621,"[0.0,0.0,0.0,0.0,0.0,0.0,0.0,0.0,0.0]",0.0029697002942230656,0.0026030724776870246,-0.00040776429270205814,"[0.0,0.0,0.0,0.0,0.0,0.0,0.0,0.0,0.0]",-0.619215601927042,-0.05193911728020757,9.800634685233234,"[0.0,0.0,0.0,0.0,0.0,0.0,0.0,0.0,0.0]"
1786663934616112586,2026-08-13T23:32:14.616113+00:00,14071691207693,5.026642964,1786663934,518912380,1786663934518912380,2026-08-13T23:32:14.518912+00:00,base_link,,,,,-0.02270318567752838,0.02231072634458542,0.6396636366844177,0.7679956555366516,"[0.0,0.0,0.0,0.0,0.0,0.0,0.0,0.0,0.0]",0.0003189153610572652,0.0015159205765577282,-0.0001123232890015563,"[0.0,0.0,0.0,0.0,0.0,0.0,0.0,0.0,0.0]",-0.6229344763197004,-0.06114098509463947,9.799807586759329,"[0.0,0.0,0.0,0.0,0.0,0.0,0.0,0.0,0.0]"
1786663934637319603,2026-08-13T23:32:14.637320+00:00,14071712414710,5.047849981,1786663934,539031838,1786663934539031838,2026-08-13T23:32:14.539032+00:00,base_link,,,,,-0.022687526419758797,0.022318456321954727,0.6396642923355103,0.7679953575134277,"[0.0,0.0,0.0,0.0,0.0,0.0,0.0,0.0,0.0]",-0.0015341690816970883,0.0009581675844147742,-0.003315528666600993,"[0.0,0.0,0.0,0.0,0.0,0.0,0.0,0.0,0.0]",-0.6266623377364129,-0.056387232962599954,9.800501998764275,"[0.0,0.0,0.0,0.0,0.0,0.0,0.0,0.0,0.0]"
1786663934657565445,2026-08-13T23:32:14.657565+00:00,14071732660392,5.068095663,1786663934,558991463,1786663934558991463,2026-08-13T23:32:14.558991+00:00,base_link,,,,,-0.022699519991874695,0.02230106294155121,0.6396637558937073,0.7679958343505859,"[0.0,0.0,0.0,0.0,0.0,0.0,0.0,0.0,0.0]",0.002447443741411194,0.0007228353651213344,0.0022851412378763277,"[0.0,0.0,0.0,0.0,0.0,0.0,0.0,0.0,0.0]",-0.626000439761579,-0.06468387729930691,9.80806805010438,"[0.0,0.0,0.0,0.0,0.0,0.0,0.0,0.0,0.0]"
1786663934678846795,2026-08-13T23:32:14.678847+00:00,14071753941806,5.089377077,1786663934,578907338,1786663934578907338,2026-08-13T23:32:14.578907+00:00,base_link,,,,,-0.022689303383231163,0.02230127342045307,0.6396641731262207,0.7679958343505859,"[0.0,0.0,0.0,0.0,0.0,0.0,0.0,0.0,0.0]",0.0008787279468000836,-0.0027434007813368346,0.0020041608380418296,"[0.0,0.0,0.0,0.0,0.0,0.0,0.0,0.0,0.0]",-0.6141454590559006,-0.06574169752285815,9.786854581683874,"[0.0,0.0,0.0,0.0,0.0,0.0,0.0,0.0,0.0]"
1786663934699799807,2026-08-13T23:32:14.699800+00:00,14071774894914,5.110330185,1786663934,601111047,1786663934601111047,2026-08-13T23:32:14.601111+00:00,base_link,,,,,-0.02268877997994423,0.02230987697839737,0.6396641135215759,0.7679956555366516,"[0.0,0.0,0.0,0.0,0.0,0.0,0.0,0.0,0.0]",0.0037780302823798868,-5.6658150769558756e-05,0.0011831562576834008,"[0.0,0.0,0.0,0.0,0.0,0.0,0.0,0.0,0.0]",-0.6235970318816602,-0.05003046151413582,9.800206230688094,"[0.0,0.0,0.0,0.0,0.0,0.0,0.0,0.0,0.0]"
1786663934723469057,2026-08-13T23:32:14.723469+00:00,14071798564132,5.133999403,1786663934,625100922,1786663934625100922,2026-08-13T23:32:14.625101+00:00,base_link,,,,,-0.022688528522849083,0.022288700565695763,0.6396641731262207,0.7679963111877441,"[0.0,0.0,0.0,0.0,0.0,0.0,0.0,0.0,0.0]",-0.0017947961948783578,-0.0006326771543048881,0.0020038807379935864,"[0.0,0.0,0.0,0.0,0.0,0.0,0.0,0.0,0.0]",-0.6154402481067925,-0.06190537076299078,9.780048993322252,"[0.0,0.0,0.0,0.0,0.0,0.0,0.0,0.0,0.0]"
1786663934744814533,2026-08-13T23:32:14.744815+00:00,14071819909480,5.155344751,1786663934,647019088,1786663934647019088,2026-08-13T23:32:14.647019+00:00,base_link,,,,,-0.022671354934573174,0.02226868085563183,0.6396646499633789,0.7679970264434814,"[0.0,0.0,0.0,0.0,0.0,0.0,0.0,0.0,0.0]",0.0008695392608163346,-0.0014104972382049075,0.00439174041120346,"[0.0,0.0,0.0,0.0,0.0,0.0,0.0,0.0,0.0]",-0.6144815591424703,-0.06353813676370773,9.788487735843658,"[0.0,0.0,0.0,0.0,0.0,0.0,0.0,0.0,0.0]"
1786663934766063052,2026-08-13T23:32:14.766063+00:00,14071841158159,5.17659343,1786663934,666908422,1786663934666908422,2026-08-13T23:32:14.666909+00:00,base_link,,,,,-0.022696616128087044,0.022282224148511887,0.6396638751029968,0.7679964900016785,"[0.0,0.0,0.0,0.0,0.0,0.0,0.0,0.0,0.0]",0.0029811789346402273,-0.00032655998577228365,0.0001328882761554997,"[0.0,0.0,0.0,0.0,0.0,0.0,0.0,0.0,0.0]",-0.6344369172606616,-0.06079618567838333,9.808193137788772,"[0.0,0.0,0.0,0.0,0.0,0.0,0.0,0.0,0.0]"
1786663934786787754,2026-08-13T23:32:14.786788+00:00,14071861882893,5.197318164,1786663934,687067838,1786663934687067838,2026-08-13T23:32:14.687068+00:00,base_link,,,,,-0.02269485965371132,0.022282101213932037,0.6396638751029968,0.7679964303970337,"[0.0,0.0,0.0,0.0,0.0,0.0,0.0,0.0,0.0]",0.0016517910762363956,0.0012599573762503249,-0.00012466225528648983,"[0.0,0.0,0.0,0.0,0.0,0.0,0.0,0.0,0.0]",-0.6136562142342329,-0.06992016138443723,9.793117149209976,"[0.0,0.0,0.0,0.0,0.0,0.0,0.0,0.0,0.0]"
1786663934808118874,2026-08-13T23:32:14.808119+00:00,14071883213789,5.21864906,1786663934,709060380,1786663934709060380,2026-08-13T23:32:14.709060+00:00,base_link,,,,,-0.02269328385591507,0.022276511415839195,0.6396639347076416,0.7679966688156128,"[0.0,0.0,0.0,0.0,0.0,0.0,0.0,0.0,0.0]",0.0016425373716713457,0.0023178112544596846,-0.0019996657134050203,"[0.0,0.0,0.0,0.0,0.0,0.0,0.0,0.0,0.0]",-0.6194638775996864,-0.07725777426352724,9.802550747987627,"[0.0,0.0,0.0,0.0,0.0,0.0,0.0,0.0,0.0]"
1786663934828553864,2026-08-13T23:32:14.828554+00:00,14071903649003,5.239084274,1786663934,728923463,1786663934728923463,2026-08-13T23:32:14.728923+00:00,base_link,,,,,-0.022721093147993088,0.022268306463956833,0.63966304063797,0.7679967880249023,"[0.0,0.0,0.0,0.0,0.0,0.0,0.0,0.0,0.0]",0.0013941239989874244,-0.0008628455328528399,-0.0017179522940849378,"[0.0,0.0,0.0,0.0,0.0,0.0,0.0,0.0,0.0]",-0.6241978473190218,-0.06055410685108509,9.79383494209051,"[0.0,0.0,0.0,0.0,0.0,0.0,0.0,0.0,0.0]"
1786663934851925949,2026-08-13T23:32:14.851926+00:00,14071927020416,5.262455687,1786663934,751016047,1786663934751016047,2026-08-13T23:32:14.751016+00:00,base_link,,,,,-0.022721905261278152,0.022268973290920258,0.63966304063797,0.7679966688156128,"[0.0,0.0,0.0,0.0,0.0,0.0,0.0,0.0,0.0]",0.0003269646614222996,0.0007203793532312795,-0.0030541097571366426,"[0.0,0.0,0.0,0.0,0.0,0.0,0.0,0.0,0.0]",-0.621627046982944,-0.06924764611746649,9.781345462873578,"[0.0,0.0,0.0,0.0,0.0,0.0,0.0,0.0,0.0]"
1786663934873761103,2026-08-13T23:32:14.873761+00:00,14071948855954,5.284291225,1786663934,775022838,1786663934775022838,2026-08-13T23:32:14.775023+00:00,base_link,,,,,-0.022739097476005554,0.022259796038269997,0.6396624445915222,0.7679969072341919,"[0.0,0.0,0.0,0.0,0.0,0.0,0.0,0.0,0.0]",-0.00016844432127098946,-0.006208085974556655,-0.0033180069148458532,"[0.0,0.0,0.0,0.0,0.0,0.0,0.0,0.0,0.0]",-0.6127276281472295,-0.07265051793009042,9.79588836748898,"[0.0,0.0,0.0,0.0,0.0,0.0,0.0,0.0,0.0]"
1786663934894456984,2026-08-13T23:32:14.894457+00:00,14071969552091,5.304987362,1786663934,794682047,1786663934794682047,2026-08-13T23:32:14.794682+00:00,base_link,,,,,-0.02272246964275837,0.02225435897707939,0.63966304063797,0.767997145652771,"[0.0,0.0,0.0,0.0,0.0,0.0,0.0,0.0,0.0]",-0.0010027363914876582,0.00017387556718672205,0.0025335051964384607,"[0.0,0.0,0.0,0.0,0.0,0.0,0.0,0.0,0.0]",-0.6132205262307078,-0.06366149371531792,9.804754395511745,"[0.0,0.0,0.0,0.0,0.0,0.0,0.0,0.0,0.0]"
1786663934915950065,2026-08-13T23:32:14.915950+00:00,14071991045044,5.326480315,1786663934,816991630,1786663934816991630,2026-08-13T23:32:14.816992+00:00,base_link,,,,,-0.022735634818673134,0.02224770002067089,0.6396625638008118,0.7679973244667053,"[0.0,0.0,0.0,0.0,0.0,0.0,0.0,0.0,0.0]",0.004031446704857739,0.001020189329266222,-0.00038431124518531614,"[0.0,0.0,0.0,0.0,0.0,0.0,0.0,0.0,0.0]",-0.6328934872109443,-0.05716338213398121,9.78564695945978,"[0.0,0.0,0.0,0.0,0.0,0.0,0.0,0.0,0.0]"
1786663934936201347,2026-08-13T23:32:14.936202+00:00,14072011296390,5.346731661,1786663934,838866630,1786663934838866630,2026-08-13T23:32:14.838867+00:00,base_link,,,,,-0.022722596302628517,0.022256284952163696,0.63966304063797,0.7679970264434814,"[0.0,0.0,0.0,0.0,0.0,0.0,0.0,0.0,0.0]",-0.0012712041604065682,-9.306127421688016e-05,0.0012061811578422772,"[0.0,0.0,0.0,0.0,0.0,0.0,0.0,0.0,0.0]",-0.6110564069993794,-0.05724959911270998,9.791003518056868,"[0.0,0.0,0.0,0.0,0.0,0.0,0.0,0.0,0.0]"
1786663934957132903,2026-08-13T23:32:14.957133+00:00,14072032227978,5.367663249,1786663934,858997755,1786663934858997755,2026-08-13T23:32:14.858998+00:00,base_link,,,,,-0.02271895483136177,0.02225976251065731,0.6396631002426147,0.7679970264434814,"[0.0,0.0,0.0,0.0,0.0,0.0,0.0,0.0,0.0]",0.0011220774122979765,-0.0011420825894669204,0.001733508379772633,"[0.0,0.0,0.0,0.0,0.0,0.0,0.0,0.0,0.0]",-0.6219158007964491,-0.06406979138841852,9.810317290335894,"[0.0,0.0,0.0,0.0,0.0,0.0,0.0,0.0,0.0]"
1786663934978538242,2026-08-13T23:32:14.978538+00:00,14072053633029,5.3890683,1786663934,878916838,1786663934878916838,2026-08-13T23:32:14.878917+00:00,base_link,,,,,-0.022725587710738182,0.02224165014922619,0.6396628022193909,0.7679976224899292,"[0.0,0.0,0.0,0.0,0.0,0.0,0.0,0.0,0.0]",0.00032847504306591634,-0.0006025073622468708,0.0030700429505958826,"[0.0,0.0,0.0,0.0,0.0,0.0,0.0,0.0,0.0]",-0.6107030269844457,-0.07676085759205743,9.804891758155822,"[0.0,0.0,0.0,0.0,0.0,0.0,0.0,0.0,0.0]"
1786663934999203404,2026-08-13T23:32:14.999203+00:00,14072074298543,5.409733814,1786663934,901123172,1786663934901123172,2026-08-13T23:32:14.901123+00:00,base_link,,,,,-0.022735506296157837,0.02221892960369587,0.639662504196167,0.7679982781410217,"[0.0,0.0,0.0,0.0,0.0,0.0,0.0,0.0,0.0]",-0.0004710210004867327,-0.00035267964036391386,0.002795346466606941,"[0.0,0.0,0.0,0.0,0.0,0.0,0.0,0.0,0.0]",-0.6228117267228662,-0.06869644197549205,9.780365804186463,"[0.0,0.0,0.0,0.0,0.0,0.0,0.0,0.0,0.0]"
1786663935019260001,2026-08-13T23:32:15.019260+00:00,14072094354724,5.429789995,1786663934,920995005,1786663934920995005,2026-08-13T23:32:14.920995+00:00,base_link,,,,,-0.022740136831998825,0.02223126031458378,0.6396622657775879,0.7679979205131531,"[0.0,0.0,0.0,0.0,0.0,0.0,0.0,0.0,0.0]",-0.0017811615383052629,-0.0030136146242565765,0.0022892074999508773,"[0.0,0.0,0.0,0.0,0.0,0.0,0.0,0.0,0.0]",-0.6233423995334655,-0.06285102671580389,9.797506908601521,"[0.0,0.0,0.0,0.0,0.0,0.0,0.0,0.0,0.0]"
1786663935039432949,2026-08-13T23:32:15.039433+00:00,14072114528184,5.449963455,1786663934,940970963,1786663934940970963,2026-08-13T23:32:14.940971+00:00,base_link,,,,,-0.022733712568879128,0.022229699417948723,0.6396625638008118,0.7679979801177979,"[0.0,0.0,0.0,0.0,0.0,0.0,0.0,0.0,0.0]",-0.0012632620106635176,-0.0016929984226560302,-0.00040901681065223604,"[0.0,0.0,0.0,0.0,0.0,0.0,0.0,0.0,0.0]",-0.6157287096593529,-0.05234804057439323,9.788971719968318,"[0.0,0.0,0.0,0.0,0.0,0.0,0.0,0.0,0.0]"
1786663935060065407,2026-08-13T23:32:15.060065+00:00,14072135160546,5.470595817,1786663934,961073797,1786663934961073797,2026-08-13T23:32:14.961074+00:00,base_link,,,,,-0.02272476628422737,0.022247793152928352,0.6396629214286804,0.7679973840713501,"[0.0,0.0,0.0,0.0,0.0,0.0,0.0,0.0,0.0]",0.0003161425136205316,0.00124984516633778,-0.0006661884463116955,"[0.0,0.0,0.0,0.0,0.0,0.0,0.0,0.0,0.0]",-0.6218323602966964,-0.07938736103759146,9.800361128988861,"[0.0,0.0,0.0,0.0,0.0,0.0,0.0,0.0,0.0]"
1786663935081185791,2026-08-13T23:32:15.081186+00:00,14072156280962,5.491716233,1786663934,981006005,1786663934981006005,2026-08-13T23:32:14.981006+00:00,base_link,,,,,-0.022735700011253357,0.022243186831474304,0.639662504196167,0.7679975032806396,"[0.0,0.0,0.0,0.0,0.0,0.0,0.0,0.0,0.0]",-0.002843608979283521,-0.004361404301614476,0.00012737661850934341,"[0.0,0.0,0.0,0.0,0.0,0.0,0.0,0.0,0.0]",-0.6334359235245735,-0.05750815415077377,9.791638893350958,"[0.0,0.0,0.0,0.0,0.0,0.0,0.0,0.0,0.0]"
1786663935102252033,2026-08-13T23:32:15.102252+00:00,14072177347236,5.512782507,1786663935,2950422,1786663935002950422,2026-08-13T23:32:15.002950+00:00,base_link,,,,,-0.022739121690392494,0.02224176749587059,0.6396623849868774,0.7679976224899292,"[0.0,0.0,0.0,0.0,0.0,0.0,0.0,0.0,0.0]",-0.002063128660129581,-0.0008978289105588777,-0.0027709590370583255,"[0.0,0.0,0.0,0.0,0.0,0.0,0.0,0.0,0.0]",-0.6160553843304515,-0.06788182395724579,9.801989022451638,"[0.0,0.0,0.0,0.0,0.0,0.0,0.0,0.0,0.0]"
1786663935123677020,2026-08-13T23:32:15.123677+00:00,14072198772159,5.53420743,1786663935,24880547,1786663935024880547,2026-08-13T23:32:15.024881+00:00,base_link,,,,,-0.022736763581633568,0.022264981642365456,0.6396626234054565,0.7679968476295471,"[0.0,0.0,0.0,0.0,0.0,0.0,0.0,0.0,0.0]",-0.0007394126976655208,0.0004523741264997431,0.0017432282675656093,"[0.0,0.0,0.0,0.0,0.0,0.0,0.0,0.0,0.0]",-0.6336997620925306,-0.05179129717419855,9.790820562705397,"[0.0,0.0,0.0,0.0,0.0,0.0,0.0,0.0,0.0]"
1786663935143932973,2026-08-13T23:32:15.143933+00:00,14072219028080,5.554463351,1786663935,44950713,1786663935044950713,2026-08-13T23:32:15.044951+00:00,base_link,,,,,-0.02274034172296524,0.022263605147600174,0.6396624445915222,0.7679967880249023,"[0.0,0.0,0.0,0.0,0.0,0.0,0.0,0.0,0.0]",-0.00020495100306367763,-0.001683746538611257,-0.0020050453508218455,"[0.0,0.0,0.0,0.0,0.0,0.0,0.0,0.0,0.0]",-0.6144734489012509,-0.0673057365357643,9.79321885601878,"[0.0,0.0,0.0,0.0,0.0,0.0,0.0,0.0,0.0]"
1786663935165709377,2026-08-13T23:32:15.165709+00:00,14072240804420,5.576239691,1786663935,66823672,1786663935066823672,2026-08-13T23:32:15.066824+00:00,base_link,,,,,-0.022730998694896698,0.022279327735304832,0.6396627426147461,0.7679963707923889,"[0.0,0.0,0.0,0.0,0.0,0.0,0.0,0.0,0.0]",-0.00020589533293848992,-0.0008781942092661857,-0.0009259129715473479,"[0.0,0.0,0.0,0.0,0.0,0.0,0.0,0.0,0.0]",-0.6219413005638867,-0.055644054479058826,9.796107563197612,"[0.0,0.0,0.0,0.0,0.0,0.0,0.0,0.0,0.0]"
1786663935187270041,2026-08-13T23:32:15.187270+00:00,14072262365116,5.597800387,1786663935,88971963,1786663935088971963,2026-08-13T23:32:15.088972+00:00,base_link,,,,,-0.02271769382059574,0.022292952984571457,0.6396632194519043,0.7679960131645203,"[0.0,0.0,0.0,0.0,0.0,0.0,0.0,0.0,0.0]",-0.0012783207042042619,0.0007040008475087109,-0.00012566623970964555,"[0.0,0.0,0.0,0.0,0.0,0.0,0.0,0.0,0.0]",-0.6300060221411288,-0.07028402626076713,9.792201203408837,"[0.0,0.0,0.0,0.0,0.0,0.0,0.0,0.0,0.0]"
1786663935207971810,2026-08-13T23:32:15.207972+00:00,14072283066949,5.61850222,1786663935,108841172,1786663935108841172,2026-08-13T23:32:15.108841+00:00,base_link,,,,,-0.022734729573130608,0.022301290184259415,0.6396627426147461,0.7679956555366516,"[0.0,0.0,0.0,0.0,0.0,0.0,0.0,0.0,0.0]",-0.002067025223706936,-0.0001018378074137636,0.0006545891314076393,"[0.0,0.0,0.0,0.0,0.0,0.0,0.0,0.0,0.0]",-0.6225724380742759,-0.06388905082691926,9.80280618405342,"[0.0,0.0,0.0,0.0,0.0,0.0,0.0,0.0,0.0]"
1786663935228393552,2026-08-13T23:32:15.228394+00:00,14072303488595,5.638923866,1786663935,130955047,1786663935130955047,2026-08-13T23:32:15.130955+00:00,base_link,,,,,-0.0227311123162508,0.02229672111570835,0.6396628022193909,0.7679958939552307,"[0.0,0.0,0.0,0.0,0.0,0.0,0.0,0.0,0.0]",-0.002881765783905687,0.0017651808812816734,-0.0001296670443274707,"[0.0,0.0,0.0,0.0,0.0,0.0,0.0,0.0,0.0]",-0.6111684160064905,-0.06538131237840279,9.806465291082858,"[0.0,0.0,0.0,0.0,0.0,0.0,0.0,0.0,0.0]"
1786663935250056774,2026-08-13T23:32:15.250057+00:00,14072325151977,5.660587248,1786663935,152897713,1786663935152897713,2026-08-13T23:32:15.152898+00:00,base_link,,,,,-0.022733842954039574,0.022283978760242462,0.6396626234054565,0.7679962515830994,"[0.0,0.0,0.0,0.0,0.0,0.0,0.0,0.0,0.0]",0.0003088290935586592,0.0025841713160285676,-0.00012976224778514034,"[0.0,0.0,0.0,0.0,0.0,0.0,0.0,0.0,0.0]",-0.6168081754591316,-0.07695509238936937,9.793359141272306,"[0.0,0.0,0.0,0.0,0.0,0.0,0.0,0.0,0.0]"
1786663935271153447,2026-08-13T23:32:15.271153+00:00,14072346248650,5.681683921,1786663935,171095380,1786663935171095380,2026-08-13T23:32:15.171095+00:00,base_link,,,,,-0.022737735882401466,0.022261302918195724,0.6396624445915222,0.7679970264434814,"[0.0,0.0,0.0,0.0,0.0,0.0,0.0,0.0,0.0]",-0.0004686861182136411,-0.001157843483685713,-0.0009237702191819999,"[0.0,0.0,0.0,0.0,0.0,0.0,0.0,0.0,0.0]",-0.6223139332685619,-0.06974950839211233,9.793267955857514,"[0.0,0.0,0.0,0.0,0.0,0.0,0.0,0.0,0.0]"
1786663935291388313,2026-08-13T23:32:15.291389+00:00,14072366483388,5.701918659,1786663935,190833630,1786663935190833630,2026-08-13T23:32:15.190834+00:00,base_link,,,,,-0.022756818681955338,0.022250551730394363,0.6396617889404297,0.7679972648620605,"[0.0,0.0,0.0,0.0,0.0,0.0,0.0,0.0,0.0]",-0.0004722239092593781,0.0009695149523162897,0.003856224228995436,"[0.0,0.0,0.0,0.0,0.0,0.0,0.0,0.0,0.0]",-0.6192929780121892,-0.05859156090673059,9.79610990128517,"[0.0,0.0,0.0,0.0,0.0,0.0,0.0,0.0,0.0]"
1786663935313558853,2026-08-13T23:32:15.313559+00:00,14072388654024,5.724089295,1786663935,214953297,1786663935214953297,2026-08-13T23:32:15.214953+00:00,base_link,,,,,-0.022747909650206566,0.022242549806833267,0.6396619081497192,0.7679976224899292,"[0.0,0.0,0.0,0.0,0.0,0.0,0.0,0.0,0.0]",0.00032422185257012694,-0.0008729445439933808,-0.0009211738321749167,"[0.0,0.0,0.0,0.0,0.0,0.0,0.0,0.0,0.0]",-0.6217597334519028,-0.04674023346286267,9.798654909592866,"[0.0,0.0,0.0,0.0,0.0,0.0,0.0,0.0,0.0]"
1786663935334957472,2026-08-13T23:32:15.334958+00:00,14072410052387,5.745487658,1786663935,238664338,1786663935238664338,2026-08-13T23:32:15.238664+00:00,base_link,,,,,-0.022734934464097023,0.022256504744291306,0.6396624445915222,0.7679972052574158,"[0.0,0.0,0.0,0.0,0.0,0.0,0.0,0.0,0.0]",-0.0007491865508809767,0.002051130521247826,0.000655107459537769,"[0.0,0.0,0.0,0.0,0.0,0.0,0.0,0.0,0.0]",-0.6244195272456854,-0.0721050037433859,9.80694693711996,"[0.0,0.0,0.0,0.0,0.0,0.0,0.0,0.0,0.0]"
1786663935355376494,2026-08-13T23:32:15.355376+00:00,14072430471633,5.765906904,1786663935,261024672,1786663935261024672,2026-08-13T23:32:15.261025+00:00,base_link,,,,,-0.02271074242889881,0.02225443348288536,0.6396631002426147,0.7679973840713501,"[0.0,0.0,0.0,0.0,0.0,0.0,0.0,0.0,0.0]",-0.00020694300984827976,-0.00034373841510059556,-0.0020002545216772803,"[0.0,0.0,0.0,0.0,0.0,0.0,0.0,0.0,0.0]",-0.6073980671549215,-0.05742933046063408,9.784431153929233,"[0.0,0.0,0.0,0.0,0.0,0.0,0.0,0.0,0.0]"
1786663935376736010,2026-08-13T23:32:15.376736+00:00,14072451831149,5.78726642,1786663935,280985464,1786663935280985464,2026-08-13T23:32:15.280985+00:00,base_link,,,,,-0.022713128477334976,0.02225637435913086,0.6396631002426147,0.7679973244667053,"[0.0,0.0,0.0,0.0,0.0,0.0,0.0,0.0,0.0]",-0.0009964152199950168,-0.0014178851695609506,-0.00013308950866462558,"[0.0,0.0,0.0,0.0,0.0,0.0,0.0,0.0,0.0]",-0.6148463738668709,-0.06219710655144881,9.807919581544398,"[0.0,0.0,0.0,0.0,0.0,0.0,0.0,0.0,0.0]"
1786663935397008987,2026-08-13T23:32:15.397009+00:00,14072472104158,5.807539429,1786663935,301061755,1786663935301061755,2026-08-13T23:32:15.301062+00:00,base_link,,,,,-0.0227096825838089,0.022258227691054344,0.6396632194519043,0.7679972648620605,"[0.0,0.0,0.0,0.0,0.0,0.0,0.0,0.0,0.0]",-0.0001958726211031054,-0.0016872356957581811,-0.0009273569042008753,"[0.0,0.0,0.0,0.0,0.0,0.0,0.0,0.0,0.0]",-0.6289499372169375,-0.07022651022013741,9.785019182950258,"[0.0,0.0,0.0,0.0,0.0,0.0,0.0,0.0,0.0]"
1786663935417712004,2026-08-13T23:32:15.417712+00:00,14072492806887,5.828242158,1786663935,318875589,1786663935318875589,2026-08-13T23:32:15.318876+00:00,base_link,,,,,-0.022725021466612816,0.022259168326854706,0.6396628022193909,0.767997145652771,"[0.0,0.0,0.0,0.0,0.0,0.0,0.0,0.0,0.0]",-0.0007427968498036442,0.0009873084574237069,0.0009355394926575762,"[0.0,0.0,0.0,0.0,0.0,0.0,0.0,0.0,0.0]",-0.6146292970500886,-0.06410846573126036,9.805426011162997,"[0.0,0.0,0.0,0.0,0.0,0.0,0.0,0.0,0.0]"
1786663935439249756,2026-08-13T23:32:15.439250+00:00,14072514344863,5.849780134,1786663935,339041714,1786663935339041714,2026-08-13T23:32:15.339042+00:00,base_link,,,,,-0.022714709863066673,0.022265490144491196,0.6396631598472595,0.7679969072341919,"[0.0,0.0,0.0,0.0,0.0,0.0,0.0,0.0,0.0]",-0.0004644068552667501,-0.0011552156927038615,0.003307614344810739,"[0.0,0.0,0.0,0.0,0.0,0.0,0.0,0.0,0.0]",-0.6284345350407063,-0.05115670276482123,9.802980371576547,"[0.0,0.0,0.0,0.0,0.0,0.0,0.0,0.0,0.0]"
1786663935460276095,2026-08-13T23:32:15.460276+00:00,14072535371266,5.870806537,1786663935,360979422,1786663935360979422,2026-08-13T23:32:15.360980+00:00,base_link,,,,,-0.02273627556860447,0.02226443402469158,0.6396623849868774,0.7679969668388367,"[0.0,0.0,0.0,0.0,0.0,0.0,0.0,0.0,0.0]",0.00193346509429621,-0.0024710319625584603,-0.004130846331727369,"[0.0,0.0,0.0,0.0,0.0,0.0,0.0,0.0,0.0]",-0.6262190509483218,-0.06407791532936971,9.80582757770121,"[0.0,0.0,0.0,0.0,0.0,0.0,0.0,0.0,0.0]"
1786663935481384640,2026-08-13T23:32:15.481385+00:00,14072556479811,5.891915082,1786663935,382970214,1786663935382970214,2026-08-13T23:32:15.382970+00:00,base_link,,,,,-0.022736631333827972,0.022295797243714333,0.6396626234054565,0.7679958939552307,"[0.0,0.0,0.0,0.0,0.0,0.0,0.0,0.0,0.0]",0.0016408368756960054,0.001258146218649611,-0.0028155066480737055,"[0.0,0.0,0.0,0.0,0.0,0.0,0.0,0.0,0.0]",-0.6308239874605089,-0.048972778287902474,9.804843827360868,"[0.0,0.0,0.0,0.0,0.0,0.0,0.0,0.0,0.0]"
1786663935502413890,2026-08-13T23:32:15.502414+00:00,14072577508997,5.912944268,1786663935,406953089,1786663935406953089,2026-08-13T23:32:15.406953+00:00,base_link,,,,,-0.02273746207356453,0.022286638617515564,0.6396624445915222,0.7679962515830994,"[0.0,0.0,0.0,0.0,0.0,0.0,0.0,0.0,0.0]",6.31010858103312e-05,-0.0008856799285685051,0.001192736745638068,"[0.0,0.0,0.0,0.0,0.0,0.0,0.0,0.0,0.0]",-0.6266799464583397,-0.07630255589792505,9.804633399480581,"[0.0,0.0,0.0,0.0,0.0,0.0,0.0,0.0,0.0]"
