elapsed_seconds,t,imu,orientation_x,orientation_y,orientation_z,orientation_w,relative_roll_rad,relative_pitch_rad,relative_yaw_rad,gyro_x,gyro_y,gyro_z,accel_x,accel_y,accel_z,gyro_norm,accel_norm
0.82,-13.770379783,chest,-0.0018087515248114082,0.032380027637473684,0.09689986568850498,0.9947656398658268,-1.5507519357527144e-06,4.892322584582054e-05,-3.206699559221704e-07,0.0028010710672045636,0.0010364424858192584,-0.0010421868569063099,-0.6495998209845397,0.027082956687396038,9.797150713991147,0.003163283988934596,9.818700297219756
0.84,-13.750379783,chest,-0.0018103542175593257,0.03238215475850035,0.09689982008257782,0.9947655721519355,-4.324424213386635e-06,5.347035071290307e-05,-4.943904023946288e-07,0.0031920233523298792,0.00033305881922815884,-0.0021705264970988043,-0.6432830109051504,0.02283717727197467,9.798671823319616,0.0038744195092288267,9.819791447373142
0.86,-13.730379783,chest,-0.0018161843575610146,0.032376807159646144,0.096899635681195,0.9947657535507434,-1.6947471548789395e-05,4.394992627765326e-05,-1.2932635504725454e-06,0.001235094914108419,-0.001400570327754034,-0.0023855854080770873,-0.6313960924616089,0.022880355946886484,9.799496042791278,0.0030295336982895317,9.81984252566944
0.88,-13.710379782999999,chest,-0.0018201208720615826,0.03236522100913749,0.09689951419286798,0.9947661352188398,-2.7015445610345523e-05,2.1637521875783605e-05,-1.905433657523048e-06,-0.0002824363766214278,-0.004393121528641752,-0.0021795230590824235,-0.6284314741840653,0.031157368704670743,9.794036840330921,0.004912189719191095,9.814227148845143
0.9,-13.690379783,chest,-0.0018074477345546304,0.03236602908014332,0.09689994589894602,0.99476608998249,-1.6732995220536395e-06,2.0790544393189947e-05,-2.1448220666187012e-07,0.0002457181285033675,-0.0014480459369607993,-0.0006681714601529043,-0.6431004909038016,0.037810546268758155,9.79668091441174,0.0016135884030280896,9.817839111413932
0.92,-13.670379783,chest,-0.001786348746934406,0.032386501718655945,0.0969005832508542,0.9947653996949362,4.4227769265603456e-05,5.7474855311046014e-05,2.6278954630143403e-06,-0.0011662988165702182,-0.0017393849094316832,0.001022932689196467,-0.6442367209434874,0.03247082706350439,9.794039950269408,0.0023306874692498934,9.81525923522631
0.9400000000000001,-13.650379783,chest,-0.001784373138040679,0.03240565466440384,0.09690062747517743,0.9947647751871759,5.1865102610904046e-05,9.523762919072531e-05,3.0351196200761876e-06,-0.002340780580017492,0.0007723470127356547,-0.0006052101194586258,-0.6440938821037009,0.021573575211572597,9.799602186713999,0.0025381199578750884,9.820770100453458
0.9600000000000001,-13.630379782999999,chest,-0.0017739847159427907,0.032401388655215316,0.09690099327821489,0.9947648970953573,7.16832668254952e-05,8.472769799183766e-05,4.396683313423466e-06,0.0002531685113422424,0.0016632378123876933,0.0016492616973273198,-0.6343868589233673,0.03636911650117056,9.813365717174111,0.002355953832731541,9.833916620473142
0.9800000000000001,-13.610379782999999,chest,-0.001777435142697037,0.03240226084943954,0.09690086932128572,0.9947648746014998,6.499548616289985e-05,8.713358302547825e-05,3.934088359969223e-06,0.0003902523111386073,0.0007903380570221119,0.0009511521746398668,-0.6178972901524284,0.025572473967734134,9.781663398620578,0.0012967735230365628,9.801193287376595
1.0,-13.590379783,chest,-0.0017726922678168607,0.0323788884641802,0.09690106280158796,0.9947656252464048,6.989212718000459e-05,3.966498569041299e-05,4.394619368852659e-06,0.004177150274304927,-0.00276007368722657,0.001928984070102551,-0.6419725641944828,0.025628813844034464,9.818862427850625,0.005365404990842313,9.839860008472385
1.02,-13.570379783,chest,-0.0017916357372121227,0.03237212689500467,0.09690044605223264,0.9947658714474262,3.093382071650552e-05,2.9870287659994332e-05,1.8686598579620295e-06,-0.00404760813768075,-0.0018088917531940349,-0.003398780273011663,-0.6387560111560724,0.02200764227406029,9.789333147010673,0.005586316170358248,9.81017517892868
1.04,-13.550379783,chest,-0.0017824912369296265,0.03237969826449354,0.09690074514161377,0.9947656123209581,5.0574185826768314e-05,4.317720897173416e-05,3.1336530481596014e-06,0.0029713703046345434,-0.0005515234132372345,-0.0014404174523128315,-0.6308297584410524,0.043291531789167455,9.795083801658068,0.0033478384070232863,9.815471818632242
1.06,-13.530379782999999,chest,-0.0017819286321032735,0.03238834151986122,0.09690074493284491,0.9947653319730251,5.33676018648066e-05,6.028235134181159e-05,3.2557055162918402e-06,-0.0007905915764832082,-0.0024691395551650185,0.0015132197803752272,-0.6407173902333586,0.020382312417911413,9.79208726209607,0.003001919267303097,9.81304780184582
1.08,-13.510379783,chest,-0.001772986367231863,0.03240320852545597,0.0969010133711095,0.9947648376396552,7.402070340045697e-05,8.815867475497896e-05,4.519583926665405e-06,-0.001857766308359081,-0.003931418569990249,-0.004628086593759236,-0.6379231708166044,0.026119753158115787,9.792928037415077,0.00635031756278946,9.813718345222673
1.1,-13.490379783,chest,-0.0017609584219442191,0.032405708911703704,0.09690141240536973,0.9947647386840823,9.840916985126569e-05,9.080708713526953e-05,6.121234904288286e-06,0.00047294845804852874,-0.0019943324594576023,-0.0011211552768786359,-0.64401492353391,0.026080273728472207,9.804726704373566,0.002336243000565117,9.825889331244692
1.12,-13.470379782999998,chest,-0.0017547215502527235,0.03241154603783313,0.0969016140570704,0.9947645398931615,0.00011193517511376427,0.0001012235810233797,6.9868270529127585e-06,0.0013113421100155846,0.0014969611305810616,0.000998663323289116,-0.6410250446123779,0.026536914324195818,9.804840846296702,0.0022266205759521574,9.825808940583487
1.1400000000000001,-13.450379782999999,chest,-0.0017438252581037695,0.032424821569041806,0.09690195203193767,0.9947640934975915,0.0001361632026020132,0.0001255514627276355,8.50168972821308e-06,0.00031247975651200284,0.0012556671001275196,0.0021727410310048035,-0.6325612850137802,0.03629992937111085,9.802484669074689,0.002528862798252264,9.822940351626642
1.1600000000000001,-13.430379783,chest,-0.0017329551161705946,0.03241626467397041,0.09690230856099218,0.9947643566426688,0.00015610924800046888,0.00010640209987755611,9.832298761836e-06,0.00035603308244403214,0.0008460253758506727,0.0014998665878709556,-0.6333793087356632,0.03921197916062415,9.805302973625325,0.001758442001827053,9.82581667509779
1.1800000000000002,-13.410379783,chest,-0.0017230557233244349,0.03240914371663323,0.09690262861277857,0.9947645746861229,0.00017440442475713525,9.030075716132124e-05,1.1041254396104705e-05,0.0024187039029416836,0.0016322476966533943,0.0006234033418184436,-0.6349044496353994,0.03258531128812631,9.80111950374682,0.002983788336984721,9.821716193690637
1.2000000000000002,-13.390379783,chest,-0.0017179028428636683,0.03240948382858078,0.09690279487060498,0.9947645563217725,0.00018471136663222865,8.99792616646522e-05,1.1710703532674671e-05,0.0003922661519671399,0.0011255234250032685,0.00020976093298117032,-0.6324394697542908,0.023442354557324768,9.795185296406508,0.0012102377300412205,9.815609212770674
1.2200000000000002,-13.370379782999999,chest,-0.0017254567850599803,0.03241566939675566,0.09690254372232826,0.9947643661674787,0.00017089691227489823,0.00010376297970404735,1.078195414772054e-05,8.704624214710566e-05,0.000812316635625048,0.0009583271325018383,-0.6383695626081354,0.021670042013676272,9.798254448781329,0.0012592959372896926,9.81905166155309
1.2400000000000002,-13.350379783,chest,-0.0017352766680135178,0.03241728224658885,0.09690222205776705,0.9947643278620809,0.00015169313898777403,0.00010887873123621716,9.519171810801197e-06,0.001053872019763479,0.0011963255212151026,0.0022335876147489132,-0.6383011402463705,0.022038190523613523,9.798942616011061,0.0027442220426763357,9.819734742820657
1.2600000000000002,-13.330379783,chest,-0.0017449664051719259,0.03241147095025578,0.09690191698604991,0.9947645299906478,0.00013130922006610035,9.918304190192906e-05,8.223279198915634e-06,-0.0001834011920849726,0.00029832248993611745,0.0008669037841867572,-0.633116110693072,0.023826855966284956,9.799222999464662,0.0009349622860293316,9.81968304589927
1.2800000000000002,-13.310379782999998,chest,-0.0017540940687269285,0.032405531822471065,0.09690163654697592,0.9947647347467735,0.00011201722186449103,8.912380388537144e-05,7.012021974173166e-06,0.00048664068764231336,-0.0020212511950979564,-0.0017302594258289772,-0.632328340674049,0.02768651562959253,9.801259744558443,0.0027048240669633066,9.8216749210035
1.3000000000000003,-13.290379782999999,chest,-0.001753190161559739,0.03239452445632337,0.09690169437478093,0.9947650892229797,0.00011167980889670304,6.70259602546519e-05,7.075869111083932e-06,0.001065783335875359,-0.0030077404271817484,-0.0011925445762225346,-0.632891223002946,0.02643618725304373,9.79912331355298,0.0034065465155507326,9.819575748797307
1.3200000000000003,-13.270379783,chest,-0.0017594370272949605,0.032393287750797084,0.09690149848209091,0.9947651375485405,9.902461075128599e-05,6.577380209327188e-05,6.267572261631216e-06,0.0004977170634184014,-0.0002835883913235973,0.000369921780607206,-0.6424634536813405,0.029595777026598744,9.803337251373872,0.0006818993875044534,9.8244112527677
1.3400000000000003,-13.250379783,chest,-0.00177672973214204,0.03238810878811975,0.09690094455854535,0.9947653294040006,6.365297243071666e-05,5.881118190242951e-05,3.989216845301513e-06,0.0012385497067567406,0.0005745324672796127,-0.0019404491254237542,-0.6310499115841374,0.02744524731508326,9.800802564469452,0.002372643197032251,9.821135786670578
1.3600000000000003,-13.230379783,chest,-0.001788128712200675,0.03238906619626828,0.09690058372008198,0.994765312956453,4.1183126707977635e-05,6.292754225545316e-05,2.5397402914073552e-06,-0.00087897160776276,0.002383298369211492,-0.0023452644022866624,-0.6318128198471668,0.03216786234701018,9.809883939729357,0.0034573063677626583,9.830261701585119
1.3800000000000003,-13.210379782999999,chest,-0.0017792423487702793,0.03237949497193002,0.09690087266807096,0.9947656123319671,5.699031313177727e-05,4.2142632438846306e-05,3.5969844445205013e-06,-0.0010510796267818089,0.0031401854029891015,-0.0010914331894065934,-0.633594275444979,0.029904689456451253,9.802055369317522,0.003486654435690446,9.822556971557589
1.4000000000000004,-13.190379783,chest,-0.0017738507347120507,0.03236002183491352,0.09690104546185403,0.9947662387861858,6.39342200994264e-05,2.314100365330418e-06,4.096807648679146e-06,0.0001214484722327398,-0.0019514636567752835,-0.004922313260346315,-0.630407826094193,0.0275436397112521,9.808268283888792,0.005296425961731514,9.828545131810106
1.4200000000000004,-13.170379783,chest,-0.0017655604814769616,0.03237361018278158,0.09690132048426399,0.9947657846188346,8.30420060555781e-05,2.777021966848814e-05,5.318615926785952e-06,-0.0009779886968864884,-0.0010843806020461606,-0.0013209269309243763,-0.6374255423920996,0.03428942011194458,9.802558332635774,0.001969058439501737,9.823321075438415
1.4400000000000004,-13.150379782999998,chest,-0.0017585196688469783,0.03237109560516948,0.0969015344429327,0.9947658580794279,9.654902053135572e-05,2.139727110272993e-05,6.176478106301175e-06,0.0005121958820199148,-0.0020953062499249157,0.0017893245291295099,-0.6342110213282021,0.027715950099597333,9.789295315672588,0.002802558683253058,9.809857010727187
1.4600000000000004,-13.130379782999999,chest,-0.0017674210848739962,0.03237800509869053,0.09690124210985514,0.9947656459116918,8.019660036140408e-05,3.688391018541459e-05,5.0853633104530616e-06,0.002018364040040972,-0.0014551321085893103,0.0018327193081102376,-0.6401747662430544,0.01432344832625857,9.800448661522106,0.003090317607285399,9.82134526730614
1.4800000000000004,-13.110379782999999,chest,-0.0017826770510898724,0.032380456412108516,0.09690076056134883,0.9947655858078863,5.0350340966787144e-05,4.472323904680664e-05,3.1602169521249834e-06,-0.0017518111596789136,-0.0004632747449909828,0.000610852028619316,-0.6432280240133571,0.02116169283064396,9.800206015115993,0.001912225412808431,9.82131498562363
1.5000000000000004,-13.090379783,chest,-0.0017841674014547303,0.03237687687782131,0.09690071930612748,0.9947657036650777,4.669460633621725e-05,3.7883001121841176e-05,2.9456868371191547e-06,-0.0033324398550314376,0.0005163831175473482,-0.00103007894334645,-0.6406973443240349,0.02181551649393024,9.79345329053528,0.0035260274447337482,9.814412685315412
1.5200000000000005,-13.070379783,chest,-0.0017827419971390894,0.032364841664960564,0.09690077241535891,0.9947660926872611,4.719600258518142e-05,1.3636937864491827e-05,3.0241726345359154e-06,-0.002384100867503317,0.00021294067126090917,-0.00018567377612011622,-0.6360515907755403,0.024076379926380932,9.798843543324127,0.0024007822531512137,9.819494695998536
1.5400000000000005,-13.050379782999999,chest,-0.0017876723022061034,0.03235594777021032,0.09690062868477345,0.9947663871644071,3.5673701365368515e-05,-3.12077143438394e-06,2.329603404405134e-06,-0.001321608716192251,-1.2403451372903107e-05,-0.00013031529453255003,-0.6359209331593645,0.031244280837178735,9.810347325379642,0.0013280758714434937,9.830986028008523
1.5600000000000005,-13.030379782999999,chest,-0.0017912713872310791,0.0323562030442587,0.09690052854925339,0.9947663821411796,2.8569139264966736e-05,-1.914691244886413e-06,1.8994018322615602e-06,-0.00016441339084732485,0.0007020218009098554,-0.002231648626602044,-0.6381714328423089,0.034646346603158795,9.815040857954799,0.002345233882719892,9.835826868664933
1.5800000000000005,-13.010379783,chest,-0.0017802380846214405,0.03235743080613855,0.09690087899484964,0.994766327875051,5.0735322755457446e-05,-1.608084811310917e-06,3.325543888710314e-06,0.0011016923951941476,0.0006453214524197943,-0.0018038920822888542,-0.632442616107431,0.028858071773790763,9.80650216572992,0.0022100209399746034,9.826917175668111
1.6000000000000005,-12.990379782999998,chest,-0.0017787773894748996,0.03235728637526421,0.09690090532104019,0.9947663326215814,5.3611745419956947e-05,-2.178928533380642e-06,3.4709854772607684e-06,-0.002933423747343819,-0.0005948155959833797,-0.0005697956487829259,-0.6329759149605318,0.0292708605563031,9.795268218101153,0.0030468750476640278,9.815742190824919
1.6200000000000006,-12.970379782999998,chest,-0.0017745597291040902,0.03235184116101027,0.09690105613488366,0.9947665025679167,6.093846669230629e-05,-1.3841314713491926e-05,3.991003114656166e-06,0.002692013539624327,0.00014672553077865557,0.0002676183236107196,-0.6373117995894432,0.03368206907980781,9.806648476452898,0.0027092590954050865,9.827393100532275
1.6400000000000006,-12.950379782999999,chest,-0.0017774680605060122,0.03235273403547054,0.09690095190940155,0.9947664784896885,5.533194956086618e-05,-1.1499320342611696e-05,3.6034348083191503e-06,-0.00027263592279267747,0.0006223264119568629,0.002455224937489164,-0.6419302540414553,0.02345877063632621,9.802320649266877,0.0025474987739123227,9.823345401441268
1.6600000000000006,-12.930379783,chest,-0.001795232582142057,0.03236866408311048,0.09690035537754016,0.9947659864778033,2.3112958372983883e-05,2.3670874697012678e-05,1.4205159244440324e-06,-3.0091942957484875e-05,-0.00036497879640732807,0.0012559159655579123,-0.6359231083255975,0.02068108148833372,9.807618709186999,0.001308220149440132,9.828235378318372
1.6800000000000006,-12.910379783,chest,-0.0017878639305851035,0.032367072572622266,0.09690060467421212,0.9947660272493308,3.744871846933506e-05,1.9072900206751342e-05,2.3797713937234732e-06,0.0002382374313778601,-0.0014283369146703255,0.000939461263881187,-0.6334319356152358,0.036597616907349736,9.792210986132405,0.0017261201817523318,9.812745354871527
1.7000000000000006,-12.890379782999998,chest,-0.0017834917566650313,0.032385164767798326,0.0969007375384229,0.9947654333181397,4.964289006892386e-05,5.425851069751353e-05,3.1084674776415966e-06,2.5843690020305193e-05,-0.0007746288868163826,0.0013746547059248148,-0.630283313718644,0.033402698808856816,9.79141894616553,0.0015780980226606624,9.8117408126779
1.7200000000000006,-12.870379782999999,chest,-0.0017782346968934673,0.03235767234700001,0.0969009205766805,0.9947663195509984,5.476521817016078e-05,-1.5154121379978847e-06,3.5403993634552933e-06,-2.6788859228817096e-05,0.0002064282043927069,-0.0015085055975275414,-0.62773750051992,0.023979744381930145,9.789564067303802,0.0015227998503807069,9.80969897731553
1.7400000000000007,-12.850379783,chest,-0.0017838359496886054,0.0323579005112415,0.09690075457099731,0.9947663182714725,4.367630064372463e-05,2.4768415318732195e-08,2.8487738750193614e-06,-0.0006305596846840142,-0.0018784548159182179,0.0006489372925998632,-0.6346902706000302,0.0266189776479282,9.809569794099074,0.002085022211181931,9.830116980731527
1.7600000000000007,-12.830379782999998,chest,-0.0017921587497295563,0.03236976972810977,0.0969004700574612,0.9947659448721634,2.9435158317880905e-05,2.5277150011993044e-05,1.8597421775901068e-06,-0.00119454065073403,-0.002169411311219089,0.001837733757164409,-0.6350304839299012,0.02227948841040255,9.814935854367084,0.0030839160438836566,9.835483003719979
1.7800000000000007,-12.810379782999998,chest,-0.0017902952812502435,0.0323563654570175,0.09690055571002457,0.994766375969909,3.0540829891734234e-05,-1.7804375742613843e-06,2.0183870601542253e-06,-0.002409074917972645,0.000808483698195076,0.0002172066242169023,-0.6251493376042834,0.024185516144581698,9.80143359454566,0.002550385572468562,9.821379594628572
1.8000000000000007,-12.790379782999999,chest,-0.0017775808126729278,0.03235466437303216,0.09690096487075218,0.9947664142435048,5.548066107863292e-05,-7.63288965899278e-06,3.641453645286674e-06,-0.0013827070165792106,-0.0023411440785161795,-4.5261444107139626e-05,-0.639918085615594,0.03244020411838153,9.79548497383363,0.0027193533952745855,9.816418562578798
1.8200000000000007,-12.770379783,chest,-0.0017559121387462273,0.032367844877656926,0.0969016445976063,0.9947659577331827,0.000101100008616406,1.4417623790841105e-05,6.533015636911443e-06,0.00024441335905587137,-0.004685940971376784,0.0010746379795951182,-0.650357322081796,0.039058416637720215,9.80110750248158,0.004813795536216807,9.822738848279352
1.8400000000000007,-12.750379783,chest,-0.001746986495512648,0.032380730071262534,0.09690191445775966,0.9947655278168106,0.00012133610709863518,3.8350053498614756e-05,7.77895016490504e-06,0.0013539999091158623,-0.0021373149949779346,9.49520762565572e-05,-0.6481210158711936,0.03423215715005604,9.806821577420054,0.0025318860634769335,9.828274626970321
1.8600000000000008,-12.730379782999998,chest,-0.0017559696443441605,0.03239080148616896,0.09690160844244876,0.9947652139228422,0.00010543439976729019,6.014993627712073e-05,6.686856246940209e-06,0.002309740136441479,-0.0005147064553897051,-0.0013049907036482347,-0.639214989788868,0.02347139961176302,9.804682595994379,0.002702373580709531,9.82552530493742
1.8800000000000008,-12.710379782999999,chest,-0.0017603229615485085,0.03239264469053222,0.09690147191841764,0.9947651595090513,9.713918134934829e-05,6.4664793126612e-05,6.150698747653394e-06,0.000706412705059235,0.00018454760713090823,-0.00015966692079046415,-0.6291093921753153,0.021628973247566564,9.79804712782677,0.0007473755781142157,9.818246990115973
1.9000000000000008,-12.690379783,chest,-0.0017639532537742906,0.03237905135188142,0.09690136637102102,0.9947656059081958,8.729055542211483e-05,3.8295500116136694e-05,5.568717024839742e-06,-0.0022879591292449064,0.002303086430509412,6.897622084798608e-05,-0.6353014696036979,0.02416257749940539,9.796254861544426,0.0032471097613930707,9.816863098758423
1.9200000000000008,-12.670379782999998,chest,-0.0017663314820901119,0.032364663603833776,0.09690128821322226,0.9947660775104488,7.977732520192404e-05,1.0101306947118971e-05,5.11469848163415e-06,-0.0003635953846518312,-0.0008649919339784678,4.3295651465380934e-05,-0.6268055822799137,0.027132288216923643,9.800018906756298,0.0009393014228796498,9.820081057293878
1.9400000000000008,-12.650379782999998,chest,-0.0017566515400336197,0.03236203840577283,0.09690161571231055,0.9947661481564066,9.850617002271633e-05,2.9965516115115776e-06,6.369245951542979e-06,-0.0017987386839603864,0.0009939499579315943,-0.0020540026576925975,-0.6400103868039109,0.025569439642810787,9.79496034650766,0.002905567808511103,9.815880769503977
1.9600000000000009,-12.630379782999999,chest,-0.0017667559905882218,0.03235885189552257,0.0969013021442871,0.9947662644661885,7.780618630448544e-05,-1.3911490166496066e-06,5.0572678120808234e-06,0.0005425248777719025,0.003053010246397493,-0.0018432658986292576,-0.6434778609221647,0.027508769530455075,9.79584771109117,0.003607330589322113,9.8169981597629
1.9800000000000009,-12.610379782999999,chest,-0.0017723454222600046,0.03238010488989057,0.09690107385397306,0.9947655851933012,7.081707772726986e-05,4.20204338313912e-05,4.451310171571521e-06,-0.00029770234794924727,-0.0006726061785930594,0.00048312359110681835,-0.6420112465047313,0.025289410574204474,9.795931142828165,0.0008800194110018263,9.816979420878729
2.000000000000001,-12.590379783,chest,-0.001763492407170744,0.03237487536885256,0.09690135334024462,0.9947657439117062,8.739943660707183e-05,2.988905064760239e-05,5.530423243360616e-06,0.0029322022417841358,-0.003843559554929316,-0.0024652599752286106,-0.6347675555438398,0.03520160534213601,9.803120479233979,0.005426625727326008,9.82371315404549
2.020000000000001,-12.570379782999998,chest,-0.0017434048150256228,0.032384205279712676,0.09690201236925176,0.9947654114346969,0.00012912875200132845,4.457708238070346e-05,8.241180391443947e-06,0.00018849521231190572,0.0003041028284346614,-0.0014655375055307675,-0.6341039981444103,0.031655662522849216,9.79547857911748,0.001508578521471062,9.816032322449937
2.040000000000001,-12.550379782999999,chest,-0.0017392583065155027,0.032388257927120565,0.09690212642175387,0.9947652756424161,0.0001381559432713786,5.1844664959110887e-05,8.778073287807331e-06,-0.0005399382909484156,0.004648653492947767,-0.0009662179917567826,-0.6353667056353791,0.03052921643727308,9.813642060051608,0.004778607523444699,9.83423577948486
2.060000000000001,-12.530379782999999,chest,-0.0017497543232772661,0.03237824261827066,0.09690177555427727,0.9947656174492507,0.00011535664122952483,3.393234177195836e-05,7.296763778530391e-06,0.001938942461483543,0.003395531179829917,-0.0017145730623653738,-0.6313182928527883,0.015027177683114994,9.79942722370767,0.004269530495069685,9.819753689156501
2.080000000000001,-12.510379782999998,chest,-0.0017644019495573217,0.0323691629517057,0.09690133397274747,0.9947659300809756,8.448469838739925e-05,1.868831578066832e-05,5.3758080231780525e-06,-0.002455050790592044,-0.0012625045338098134,0.0005493681237723408,-0.6306134142466082,0.018695784839760823,9.798096091650384,0.002814781948516456,9.818386315062831
2.100000000000001,-12.490379782999998,chest,-0.0017713590384202903,0.03236854646692881,0.09690110213620758,0.994765960360307,7.053897036168877e-05,1.8809031216537875e-05,4.456137239650104e-06,-0.0032161165082551474,-0.00032368223652467034,0.0005067341490514932,-0.6413103833668515,0.023682217541684078,9.798345957427191,0.0032718427655875877,9.819339252550122
2.120000000000001,-12.470379782999998,chest,-0.0017697150291644738,0.032382154340649796,0.09690114944245848,0.9947655158004344,7.644238860571306e-05,4.5592304976693754e-05,4.793016781245996e-06,-0.0019858264162848256,0.0038261013179954314,-0.0016668883645919277,-0.6381057083794791,0.022065512011784746,9.798333170239443,0.004621804265781164,9.819113946629876
2.140000000000001,-12.450379782999999,chest,-0.0017741557266650351,0.03239249938263679,0.09690098672005064,0.9947651869300032,6.96217219431361e-05,6.705661668959806e-05,4.283595776310989e-06,-0.0026481397910740395,-0.00037409795519038284,-0.0024589888733678516,-0.6376181686968074,0.025235351086374723,9.805733204458248,0.0036330730673211323,9.826474313252529
2.160000000000001,-12.430379783,chest,-0.0017716469528735901,0.03239031144872712,0.09690106778227404,0.9947652547480657,7.418398627123679e-05,6.22127474145806e-05,4.586147407170671e-06,0.0011027435853068622,-0.00035947139479798303,-0.002169771981050749,-0.6342224266315708,0.025962553964218964,9.796851341382567,0.002460319806115931,9.81739315428491
2.180000000000001,-12.410379782999998,chest,-0.0017619349429127099,0.032375904839768356,0.09690140337140543,0.9947657082930208,9.069421640184316e-05,3.163748571499703e-05,5.741496854838601e-06,0.0011399445612201935,0.002308399570743959,-0.0007459602529532414,-0.6383450050394314,0.028986985543513352,9.794272648759485,0.002680417668918868,9.815095583285363
2.200000000000001,-12.390379782999998,chest,-0.0017527841152221433,0.032370627622892924,0.09690171999684659,0.9947658653556616,0.00010785741742225241,1.9353438588609606e-05,6.913710861589095e-06,-0.0023301665443048528,0.0008655567415965541,0.0005251291766069577,-0.6350312899316582,0.029102309625129743,9.797658780995375,0.0025405954517090604,9.818259992098069
2.220000000000001,-12.370379782999999,chest,-0.0017529544558352148,0.03236430994772744,0.09690172584426852,0.9947660700489767,0.00010629447036691886,6.803970004520821e-06,6.851155371467854e-06,-0.0016615700215230058,2.9823302637029155e-05,-0.0001937778608857492,-0.6317193360541397,0.027368552887214643,9.802696771324303,0.00167309719537557,9.823068886440925
2.240000000000001,-12.350379782999998,chest,-0.0017632181555237024,0.03234469805977652,0.09690140618600325,0.9947667209191978,8.209664888791934e-05,-3.0266239207099588e-05,5.352439618633298e-06,0.001823934673397774,0.0018890605204813964,-0.0017578426186867274,-0.6395379461893841,0.028316722586288468,9.802459197283046,0.0031599522171918202,9.823340416365154
2.260000000000001,-12.330379782999998,chest,-0.001775587892786512,0.032333681137278726,0.09690101232890046,0.994767095435601,5.537839938440925e-05,-4.981020683048065e-05,3.655880690622837e-06,0.0011163836779581385,0.0006386800701446667,-0.001132442242380419,-0.6454450860156189,0.028056650857601277,9.796666385558481,0.0017136657144084225,9.817945752786095
2.280000000000001,-12.310379782999998,chest,-0.0017799368608515701,0.03233820701202192,0.09690084777037947,0.9947669565749563,4.76132762248227e-05,-3.99533922259554e-05,3.0907408281599658e-06,0.0012778600437637886,0.0002701504547396194,0.0003551282393949583,-0.6426106757742233,0.026220929373126266,9.805967241692041,0.001353522672902001,9.82703564473507
2.300000000000001,-12.290379782999999,chest,-0.0017651421142956857,0.032325944894635174,0.0969013263443019,0.9947673348641383,7.464180535166065e-05,-6.724281712489066e-05,4.881118226496284e-06,-0.0028341747165423195,-0.0013596295452322782,-0.0007927600413976981,-0.6284187942146824,0.035599432545736796,9.8005269188347,0.003241852449972569,9.820718170649405
2.320000000000001,-12.270379783,chest,-0.0017722202349087326,0.03232640148886078,0.09690110481436606,0.9947673290212015,6.066248906133609e-05,-6.496142812673078e-05,3.9856614861832895e-06,-0.0037271534603874434,-0.0003110352037607385,0.0003442136475397864,-0.6425771408543626,0.017468669164131933,9.806046065744692,0.0037559151814716505,9.827092651433478
2.340000000000001,-12.250379782999998,chest,-0.00179584734368837,0.03233562978643198,0.09690033655941649,0.994767061554264,1.549288241697866e-05,-4.200229573347869e-05,1.015051887875984e-06,0.0018601300038856067,-0.0029941578352913434,-0.0006613353984854664,-0.6427603406178184,0.014992864081129717,9.808270723702885,0.0035864229091508355,9.829320435863895
2.360000000000001,-12.230379782999998,chest,-0.001792704547732366,0.032360811222091536,0.09690042652877334,0.9947662395990299,2.661697984684963e-05,7.540774233927294e-06,1.6480801989793292e-06,0.0021089975283643835,0.00011491416522653592,-0.0001723101532034542,-0.6419544510665692,0.032197736919265516,9.801920461476504,0.002119142899597332,9.822972408829147
2.3800000000000012,-12.210379782999999,chest,-0.0017855462634975754,0.032358282023325545,0.09690062862221044,0.9947663150618141,4.035565234161709e-05,1.1159327091281313e-06,2.4895393173629543e-06,-0.00012692977746794247,0.0008738881160355649,0.0013344094853234222,-0.6342361747523583,0.037853211963662814,9.811290895399425,0.001600137582296401,9.831842015877193
2.4000000000000012,-12.190379782999997,chest,-0.0017818253007724854,0.032372066139886434,0.09690073554951495,0.9947658628453208,5.042148191147788e-05,2.784761235608002e-05,3.081160395268512e-06,-0.000992151223426858,-0.0027838312393012135,-0.002643562600634408,-0.6331863614459807,0.023289881717638607,9.800214930369577,0.003965161237898113,9.82067615128156
2.4200000000000013,-12.170379782999998,chest,-0.0017950756265350423,0.03235299161344295,0.09690032312111639,0.9947664997456331,2.0391820180876152e-05,-7.573530113269555e-06,1.2100788571167698e-06,0.001305974657792336,-0.0016287622797760612,0.0010005270391720725,-0.6330679786261597,0.02695800861843685,9.807323780056048,0.0023150573917144163,9.827771951294116
2.4400000000000013,-12.150379782999998,chest,-0.0017920778498106732,0.032350259738018736,0.09690044691384626,0.9947665819375718,2.5818837242397308e-05,-1.3595429807500281e-05,1.6244668339382429e-06,0.002874050914171644,-0.002508702804256654,-0.0018178755322156431,-0.6418629018522767,0.03661696373372617,9.790999996953534,0.004225923552072892,9.81208488177469
2.4600000000000013,-12.130379782999999,chest,-0.001795502633686849,0.03235786102436191,0.0969003298524617,0.9947663399385329,2.0484960963074172e-05,2.2073934677901974e-06,1.244493720964357e-06,0.00017041388816051986,-5.437467884757911e-06,-0.0003437241459740598,-0.6349400933569455,0.032435226083492745,9.79865358276838,0.00038368834730882913,9.819257253027992
2.4800000000000013,-12.110379782999999,chest,-0.001802237029108919,0.032363945388651796,0.09690010616533166,0.9947661516184187,8.279607485839335e-06,1.563056769615656e-05,4.2217820528378525e-07,-0.0002531774920221672,-0.00012379271500994552,0.0007471474952634829,-0.6363738246373933,0.028914364202494255,9.810961079562105,0.0007985316890610317,9.83162066954494
2.5000000000000013,-12.090379782999998,chest,-0.0017907032946437534,0.03236154839871824,0.09690047676797438,0.9947662143283151,3.073806307174465e-05,8.621015156196066e-06,1.8851286123222621e-06,-0.0006960166100338774,-0.0012217910943781,5.678323699753946e-05,-0.6375444259864445,0.025866231924647223,9.8012823506024,0.0014072799777402523,9.822029712502934
2.5200000000000014,-12.070379782999998,chest,-0.0017825530886203176,0.03235821643602771,0.0969007360504771,0.9947663120986966,4.6290997866016426e-05,4.051540465344061e-07,2.8972885974809515e-06,-0.0007946457363740624,0.0007120917763344808,-0.0002707084116318973,-0.6387514185995867,0.0326153166927212,9.799145186958707,0.0011008267749237101,9.819995597185466
2.5400000000000014,-12.050379782999999,chest,-0.001791136504281693,0.03236013597662411,0.09690044653682083,0.9947662624408622,2.9604577919783992e-05,5.891909410360441e-06,1.7824790266018908e-06,0.0003475276812686037,0.0011460871536508833,-0.0004024348515856116,-0.6412830614708439,0.03267680337467921,9.80063734369566,0.001263425922950075,9.821649763713332
2.5600000000000014,-12.030379782999997,chest,-0.0018044937027167525,0.0323651219022344,0.09690000613787633,0.9947661189934094,4.024242303835024e-06,1.841109765066129e-05,8.768118142654657e-08,0.0008770137196596074,-0.0008773391366966063,-0.0011255815993009618,-0.6390340607784726,0.022694101420286005,9.793866894048412,0.001675055510105751,9.814718961407493
2.5800000000000014,-12.010379782999998,chest,-0.001810936083990148,0.0323717233935675,0.09689980140844158,0.9947659124246441,-7.501226621187129e-06,3.2807619837038615e-05,-6.728188401972091e-07,0.0007238515599930158,0.000743579690902049,-0.0017473554571700045,-0.6346709583651968,0.027867618109335118,9.801837611795026,0.0020322703883411046,9.822403188503866
2.6000000000000014,-11.990379782999998,chest,-0.0018038284936316856,0.03237734405115075,0.09690003080946459,0.9947657200688431,7.713319644331307e-06,4.262427160028892e-05,3.0138851681016376e-07,0.00014173990447258764,0.0035105167930685544,-0.0020189522380445594,-0.6365073326434834,0.031794225039993594,9.807878222339808,0.004052158251406448,9.828561831799314
2.6200000000000014,-11.970379782999998,chest,-0.0017973868842753483,0.03237897148263668,0.09690023852931322,0.9947656585241959,2.0830864439602692e-05,4.4616937235009146e-05,1.1496051026682608e-06,-0.00010906165396021411,0.0006674888226951637,-0.0013685312060147308,-0.6464165573987036,0.023541417824351,9.798458782534542,0.0015265364177194222,9.819786305060852
2.6400000000000015,-11.950379782999999,chest,-0.0017949225386418627,0.03237874252512633,0.09690032239611017,0.9947656622567457,2.5683981898616537e-05,4.368327698789365e-05,1.4744785410414352e-06,0.0006007218499436995,-0.002412664162531321,0.0010223092738780512,-0.6369837306324896,0.030435168883587563,9.805704816494556,0.0026882952504551673,9.82641956771743
2.6600000000000015,-11.930379782999998,chest,-0.0017947535276887907,0.032376375807315116,0.09690034677731064,0.9947657372184646,2.5560254781176184e-05,3.893692054557363e-05,1.5107850357409802e-06,0.0028645805110374236,-0.003140499352272211,-0.001678860533337003,-0.6293538883949645,0.026690387487250302,9.81065652756495,0.004570244017143309,9.830858568582645
2.6800000000000015,-11.910379782999998,chest,-0.0017908227543888607,0.03237441952063416,0.0969004620515951,0.9947657967425055,3.299428862924003e-05,3.427875828476701e-05,1.9759609570790815e-06,0.0011015932341976221,-0.0011541101254797237,-0.002791147120698867,-0.631749979036369,0.02951663377657384,9.799781901011752,0.0032149619103109726,9.820168255945488
2.7000000000000015,-11.890379782999998,chest,-0.0017834783962178001,0.03237907044772289,0.09690069389488624,0.9947656359788677,4.849192545286485e-05,4.211812002208326e-05,2.9608926896962373e-06,0.0025448961487474974,-0.00030985746203797296,-0.00032068402833495456,-0.6375861190675299,0.029398457735145978,9.798698852955773,0.0025836691546557568,9.819464320392512
2.7200000000000015,-11.870379782999997,chest,-0.001763233384207535,0.03236437095318927,0.09690138103902887,0.994766083485744,8.58783903083804e-05,8.917903308036657e-06,5.4976263190731345e-06,0.00017620403823240282,0.0020886723285425245,-0.0029330647376209994,-0.6392438920708648,0.03303670914297449,9.810903160906973,0.0036050615409704725,9.83176205013096
2.7400000000000015,-11.850379782999998,chest,-0.001777169142951844,0.03236166344670638,0.09690094883025008,0.994766188872841,5.765636218413306e-05,6.226851807289435e-06,3.70552354356235e-06,-0.0010532428649745094,-0.0018864794895755506,0.0005468890939403347,-0.6329951924792298,0.013749338264855651,9.795967131972134,0.00222872454069134,9.816406878725173
2.7600000000000016,-11.830379782999998,chest,-0.0017841117170789725,0.03234104471043113,0.09690075511604286,0.9947668658687621,3.986289424595668e-05,-3.349238574501534e-05,2.66435060680692e-06,-0.0006132112319346152,-0.0042505787724962715,-0.0008070237561340602,-0.6314482881656404,0.019212777923876146,9.798756986287795,0.004369752310958987,9.819100495859422
2.7800000000000016,-11.810379782999998,chest,-0.0017855598401252772,0.032366568099957325,0.09690067066350264,0.9947660413737753,4.193079668901589e-05,1.7621538908718648e-05,2.655613733804074e-06,0.005104375765343054,-0.003955053474684896,0.0013912084153085208,-0.6320973307903863,0.02165443053307271,9.806009313554236,0.00660549474273228,9.826384615282798
2.8000000000000016,-11.790379782999999,chest,-0.0017901749627434753,0.03235025396351821,0.09690055090689252,0.9947665754216108,2.9596818741595143e-05,-1.3975659901799276e-05,1.955713797574532e-06,0.0014505178775659948,5.5191685798175634e-05,0.0012408300060822721,-0.6335143879548831,0.026326802068141177,9.809994307324725,0.0019096353943394363,9.830463971247568
2.8200000000000016,-11.770379782999997,chest,-0.0017932412639925907,0.03234453208954193,0.09690045650292313,0.9947667651561359,2.2394201173447925e-05,-2.4777191691471856e-05,1.5119648599792868e-06,0.0012172555022478143,0.0015590826015640154,0.0009442684437009558,-0.6367785763884273,0.02789887157989329,9.801711914962013,0.0021918239915699484,9.822414253445585
2.8400000000000016,-11.750379782999998,chest,-0.001793216552663493,0.0323372361281013,0.0969004819603916,0.9947669999199987,2.1028596991712334e-05,-3.93128182238911e-05,1.492232021949036e-06,-0.0034987649026113287,-0.0006933771334786463,0.0011341595051638505,-0.6259160942186958,0.03340478278704817,9.793379644218296,0.003742785790842088,9.813417941385373
2.8600000000000017,-11.730379782999998,chest,-0.001790984670732714,0.032321405202884484,0.09690056481676002,0.9947675103650165,2.239741694687325e-05,-7.127483630875453e-05,1.6450280879709567e-06,-0.0037686212238704575,0.0005572195528220556,-0.0025872025122809774,-0.6377634814360242,0.02770164656199485,9.80224573189574,0.004605064212213232,9.823010283408234
2.8800000000000017,-11.710379782999997,chest,-0.0017958347758275837,0.03231230271729517,0.09690041230799216,0.9947678121879019,1.0994887306381429e-05,-8.84635468922923e-05,9.36696701092643e-07,0.00027542115001783635,0.0017483250546381042,-0.0008808391848379917,-0.6299942023773434,0.01966554514598389,9.803938799030812,0.0019769610456704845,9.824179121119315
2.9000000000000017,-11.690379782999997,chest,-0.001803937307854816,0.032306900965256805,0.09690016217719033,0.9947679973392011,-6.1553230192856745e-06,-9.765131195549337e-05,-1.3987639535528729e-07,-0.0019731922511558118,0.000776586909543743,0.0009085265557577095,-0.6298256311632789,0.02631086738966032,9.801097468265498,0.0023069450341551287,9.821348388579512
2.9200000000000017,-11.670379782999998,chest,-0.0017977364923926088,0.03230625299044315,0.09690037171610431,0.9947680091973718,6.042268092087966e-06,-0.00010014372336475397,6.730312942515582e-07,-0.002771270600021087,0.0005860834823088032,-0.0006800644540146997,-0.6408472779517558,0.03139397939287187,9.798998988741507,0.0029130606324604294,9.819982280888157
2.9400000000000017,-11.650379782999998,chest,-0.0017790669661229815,0.03231250952336769,0.09690095003899937,0.9947677832190646,4.436007242247797e-05,-9.130183322070273e-05,3.0964231991781332e-06,-0.00026769645406314276,-0.00028728833282772384,-0.002306461018844522,-0.6410790289410123,0.02942791315885635,9.798782260579095,0.0023396492064295072,9.819775054127279
2.9600000000000017,-11.630379782999999,chest,-0.0017777202941532018,0.03231164808463314,0.09690098419967104,0.9947678102802411,4.687025086269614e-05,-9.327856087404385e-05,3.2430159819796245e-06,4.844847073419791e-05,0.0013182935152936182,-0.00044088577393141615,-0.6311181266398794,0.025937548984748544,9.795383826583272,0.001390908089140613,9.815728559628669
2.9800000000000018,-11.610379782999997,chest,-0.001788212583103888,0.032308013679708474,0.09690065345450768,0.9947679417371265,2.5313086458922385e-05,-9.848318230165631e-05,1.8683540372599339e-06,-0.0023363883847428543,0.0028318307925700413,0.0006977490780156247,-0.6306273900027314,0.020765674674665332,9.792892175772577,0.0037369546555960304,9.813198218958696
3.0000000000000018,-11.590379782999998,chest,-0.0018014706877317258,0.032314643402321624,0.09690020877015466,0.9947677457906658,2.4864556635861845e-07,-8.270940013188621e-05,1.8883949115533483e-07,-0.002143194624154132,0.001311284558992364,-0.0011356634552537406,-0.6349600818088488,0.019622804184541303,9.79554415968458,0.0027572598490628038,9.81612167529852
3.020000000000002,-11.570379782999998,chest,-0.0018120918387525495,0.03232278511837376,0.09689983839006718,0.9947674980644162,-1.928149948327018e-05,-6.443545156198383e-05,-1.1573125839881016e-06,0.0004109212923249214,0.0003650477983227436,-0.0022179046103398396,-0.6356364536114699,0.020886928697013675,9.798239725435078,0.002284998263481393,9.818857962209467
3.040000000000002,-11.550379782999997,chest,-0.001807307573721485,0.032325591411797736,0.09689997436433564,0.9947674023345371,-9.228352880086277e-06,-5.977371721144209e-05,-5.488489858151979e-07,0.0005557829951154955,0.0002123535105976733,-0.0012882201678370896,-0.6379778682846906,0.016069454624221675,9.796582829820363,0.0014189784888943618,9.8173473570677
3.060000000000002,-11.530379782999997,chest,-0.0018244799648556077,0.03233923108727806,0.09689942320024941,0.9947669813524173,-4.071585012788148e-05,-2.927994220724983e-05,-2.625497522945608e-06,0.0027348739677593653,-0.0008899699780775358,0.00017750497201725614,-0.6297971289469895,0.023779007531908522,9.782810914307982,0.0028815083196996032,9.803091310904557
3.080000000000002,-11.510379782999998,chest,-0.0018241494683091622,0.0323077694815241,0.09689947215572516,0.9947679994882163,-4.615497859816742e-05,-9.200396366848551e-05,-2.8161141716331883e-06,0.000908861345103762,-0.00023972450218394246,0.0012207926943899185,-0.6345127335652454,0.019706336125903823,9.812515032348932,0.001540724369978925,9.833028323401377
3.100000000000002,-11.490379782999998,chest,-0.0018174965261029269,0.03230709956174921,0.09689969006675583,0.9947680121964375,-3.306265452263091e-05,-9.462770849921753e-05,-1.9574918646014794e-06,-0.001496642217792802,-0.0019499210726432598,0.00219287580829761,-0.6308318510254065,0.022901157940433698,9.801904125146377,0.0032940604773189722,9.822209413663746
3.120000000000002,-11.470379782999998,chest,-0.001805929482100931,0.03231527391167526,0.09690004664341076,0.9947677330167198,-8.489609513162577e-06,-8.058945597722023e-05,-4.1714757292865556e-07,0.004052657108258497,-0.0018050788101555105,-0.002757381557850289,-0.6334857590541153,0.029691258865308674,9.803424247898336,0.005223551684779566,9.823915347867082
3.140000000000002,-11.450379782999997,chest,-0.001807631294115149,0.03230486090283602,0.09690001775434018,0.9947680709544117,-1.3890354711776354e-05,-0.0001009984348259163,-6.874867466422074e-07,0.0019779210264126595,-0.000606720486333075,-0.0012893345656678347,-0.6345967015576394,0.018952298533418784,9.79486098339015,0.002437758182734173,9.815415113340148
3.160000000000002,-11.430379782999998,chest,-0.0018034653534725372,0.03230996106442329,0.09690014372449096,0.9947679006054163,-4.622463508852093e-06,-9.164828238961142e-05,-1.163387941538474e-07,-0.00046040357016041136,-0.0017866729968485232,0.0001837193457969767,-0.6350614568818128,0.023825062188675937,9.79852325592765,0.0018541641359664481,9.819110381524395
3.180000000000002,-11.410379782999998,chest,-0.0018160046937398578,0.032299002458024854,0.09689976638640505,0.9947682704235339,-3.1667824064385286e-05,-0.00011104326132760356,-1.78820349283626e-06,0.0016533324589887912,0.0011310704553864994,0.0019363389644793394,-0.6373247394462496,0.021141019219348783,9.79616943983249,0.002786079176971657,9.816902029668618
3.200000000000002,-11.390379782999997,chest,-0.0018110366315298024,0.03230818505060543,0.096899910430488,0.9947679672585052,-2.0014578247185e-05,-9.371788722400964e-05,-1.0890388204565227e-06,0.0005921823613919068,0.0021426743996251435,-0.0007894612868106369,-0.6355574498154195,0.02763313291230928,9.799016125335765,0.002359021546176586,9.819644285137867
3.220000000000002,-11.370379782999997,chest,-0.0018225222264537015,0.032298277112681927,0.09689954396016823,0.9947683037213229,-4.476067893577351e-05,-0.00011122464406088106,-2.660828860356901e-06,-0.0025799286261325854,-0.000780168015854964,-0.0014568522295141395,-0.6306940274076722,0.02748017577648039,9.805920348213709,0.003063839465040843,9.826220229151192
3.240000000000002,-11.350379782999998,chest,-0.0018304539727880596,0.0323084877848037,0.09689927415602013,0.9947679838652576,-5.85460017763495e-05,-8.935137693111272e-05,-3.611901238098625e-06,-0.0032886378036144203,-0.0006267408920769225,0.0013883354296693354,-0.643611093327106,0.03201247230167564,9.81495688315873,0.0036242817239335017,9.836088585210156
3.260000000000002,-11.330379782999998,chest,-0.0018375236564674932,0.032319562532830096,0.0968990226841684,0.9947676355749374,-7.045008131711938e-05,-6.592430169582997e-05,-4.462504322955141e-06,-0.004065627384773997,0.0014169274077214956,0.003743666319016347,-0.6454747741934361,0.02606541466285653,9.813136539903994,0.0057054401073636735,9.834376738805593
3.280000000000002,-11.310379782999998,chest,-0.0018474517344423608,0.03231742924611091,0.0968987069426638,0.9947677172495353,-9.05949732370459e-05,-6.824873192656788e-05,-5.755906601567773e-06,-0.0022254406970568584,0.0010282410319938761,0.003468795316378659,-0.6333757496482856,0.02239180279826211,9.801769559023962,0.00424763544374082,9.822237663653016
3.300000000000002,-11.290379782999997,chest,-0.0018466703530712664,0.03230772926519004,0.09689873772567062,0.9947680307818029,-9.092105103114534e-05,-8.771899477078016e-05,-5.738993397841341e-06,-0.0005586154813681925,-0.001689659093613568,0.0002970915441638149,-0.6289819916694886,0.02902403671642218,9.803739254308685,0.0018042346006738926,9.823938319585727
3.320000000000002,-11.270379782999997,chest,-0.0018411159771839097,0.03230761975752921,0.0968989121478989,0.994768027643689,-7.990298658100414e-05,-8.901366934987998e-05,-5.032761244194717e-06,-0.0018834805535270813,-0.002898328758767282,-0.0005816515036379251,-0.6283339981407887,0.03204265037159039,9.801779269157658,0.0035051572091842663,9.821950274052055
3.340000000000002,-11.250379782999998,chest,-0.0018371528489225834,0.03231430678124343,0.09689904065385871,0.9947678052525721,-7.07314395711478e-05,-7.646369992730939e-05,-4.45423866013428e-06,-0.0019038192002378985,-0.002113128742131258,-0.0009059867060775021,-0.6343058207844791,0.02716105885376464,9.794942139969793,0.0029850716138151304,9.815496580548288
3.360000000000002,-11.230379782999997,chest,-0.0018301698565254718,0.03232239636062219,0.0968992617460253,0.9947675337710206,-5.5286136143806175e-05,-6.170568978092206e-05,-3.481660493243055e-06,9.013227697211434e-05,-0.0019519418883826847,-0.0036742730512583357,-0.6439939033139754,0.02649405670141956,9.799254037049355,0.004161548199670211,9.820428186447582
3.380000000000002,-11.210379782999997,chest,-0.0018268594909439024,0.032341518079950456,0.09689935055561821,0.9947669097103019,-4.5002337030197737e-05,-2.4263856265083206e-05,-2.9019162535171006e-06,-0.0012337804595247645,-0.002508168350886253,-0.0005358024696652138,-0.6295200739943486,0.031186832527417364,9.796670565535969,0.0028460862575108202,9.81692529826543
3.400000000000002,-11.190379782999997,chest,-0.0018166370856848117,0.03233995148937341,0.09689968360214911,0.9947669469203162,-2.4989560932553445e-05,-2.9365307897100124e-05,-1.5908493105065702e-06,-0.0007540807318664768,-0.0025491447322416494,0.0020788093598303305,-0.6306460669146554,0.030461959992844023,9.810143378639218,0.0033746444213584668,9.830440249662292
3.420000000000002,-11.170379782999998,chest,-0.0018010780816198225,0.032332845635889736,0.0969002253769334,0.9947671534247244,4.5541268463011875e-06,-4.6533273867055414e-05,4.277223406567998e-07,0.00013248800239845258,-0.0007722133605358433,-0.0032339043158624613,-0.6238867530057103,0.026580826021471687,9.789959404190526,0.0033274620462333524,9.809854553283984
3.440000000000002,-11.150379782999998,chest,-0.0018022904458120706,0.03233163353070907,0.09690019977071256,0.994767193119466,1.9089857277165834e-06,-4.871231617364913e-05,2.8631342452456465e-07,0.002182492878278941,-0.0003069466454225093,-0.0011321519870124764,-0.6321967935163482,0.03055344480882203,9.813819522455443,0.002477752919193261,9.834208657439074
3.460000000000002,-11.130379782999997,chest,-0.0017937389438033677,0.032311487931227706,0.0969004802177742,0.9947678358199146,1.50023862701687e-05,-9.049254131210382e-05,1.199715230271181e-06,2.9797412494397227e-05,0.001930236184475557,-0.001411454010250605,-0.6296245002319021,0.02463411643045009,9.807681254863674,0.0023914225968453655,9.82790137557296
3.480000000000002,-11.110379782999997,chest,-0.0017933838825263655,0.03230924700630694,0.09690047361636579,0.9947679098890653,1.5275193441688373e-05,-9.502451529153078e-05,1.1870640594935367e-06,-0.0027158987052784784,0.0004054661084874673,0.00034253743311989777,-0.6343032085700852,0.027195442941320168,9.807799530661141,0.0027672803319421136,9.828327008507399
3.500000000000002,-11.090379782999998,chest,-0.0017851418482355127,0.03230971856953356,0.09690076979103461,0.9947678805472381,3.1745054014820084e-05,-9.568283024674606e-05,2.3162644051666348e-06,-0.004546782458126643,0.0005939916682450351,-0.00020944395704972413,-0.631000523191635,0.015976181411136044,9.788367651985356,0.0045901986443526955,9.808698088384304
3.5200000000000022,-11.070379782999996,chest,-0.001805289832058809,0.03229959179055383,0.09690011836498114,0.9947682365051864,-1.0259019378899836e-05,-0.00011194635587297164,-3.870378044723566e-07,0.0009653792374054124,-0.0005679493852193785,-0.0019460067515845835,-0.6258397741274193,0.023692752075861374,9.791146874790753,0.002245320879829275,9.811156603230096
3.5400000000000023,-11.050379782999997,chest,-0.00181565450216294,0.03229976491154669,0.09689976167206105,0.9947682467656903,-3.082312564473e-05,-0.00010959265313448263,-1.7676523822451884e-06,-0.00028355749422196634,-0.0038894617528490404,-0.00014140512528685017,-0.6364736919596625,0.027106988564021245,9.807064155159068,0.003902347112810745,9.82773325303407
3.5600000000000023,-11.030379782999997,chest,-0.001815174163704718,0.03231686209310348,0.09689975743624564,0.9947676927685215,-2.6555804915950887e-05,-7.563446701919219e-05,-1.5765747578555533e-06,-0.0014793760232186728,-0.0005505635715802397,0.0010429756017869963,-0.6576980583798586,0.027965205475881685,9.798481214203912,0.0018919491986700994,9.820569377272426
3.5800000000000023,-11.010379782999998,chest,-0.0018294691891989159,0.03232328194739108,0.09689929187359335,0.9947675033499191,-5.37225744192682e-05,-6.0077709622463615e-05,-3.3673777646292535e-06,0.0008722418613420671,0.0008820612504713358,0.0019846680047599756,-0.6483349326600963,0.023337138910672996,9.804159616956731,0.0023404582891772443,9.825600673837965
3.6000000000000023,-10.990379782999998,chest,-0.001832828492862043,0.032330104587153546,0.09689916812770319,0.9947672875066101,-5.907657769910202e-05,-4.583841676653044e-05,-3.7647513289051915e-06,0.0002388296818843815,0.00023520482048697072,-3.0353659854171627e-05,-0.6383467344613538,0.028906778697340544,9.79398854815223,0.0003365743145218389,9.814811961346441
3.6200000000000023,-10.970379782999997,chest,-0.0018308709381158266,0.032339796508607334,0.09689921560913516,0.9947669714499594,-5.33079168327788e-05,-2.6915094720969535e-05,-3.4479943096243915e-06,-0.00011836241677285495,-0.00033309374449794546,-0.00021508855789114354,-0.6402436231364438,0.02872161127715828,9.794883019756329,0.00041379245046721844,9.815827535090055
3.6400000000000023,-10.950379782999997,chest,-0.001826317176551245,0.032337549834461354,0.09689936040178036,0.9947670387532954,-4.469259085837507e-05,-3.227229687419175e-05,-2.8863964991465707e-06,0.00013493308966631176,0.0002712109591202325,-0.00021863772101659939,-0.6300883428421826,0.02873055709637398,9.794026300431744,0.0003735836935482405,9.814315459482918
3.6600000000000024,-10.930379782999998,chest,-0.0018202692650471112,0.03232985743385859,0.09689956582328892,0.9947672798606553,-3.4163276602328096e-05,-4.8764982897742115e-05,-2.160727679445529e-06,-0.002166567861328449,0.002734427375366396,-0.0004180343212647311,-0.6257110577165765,0.0282228920610771,9.799270641345135,0.0035136678930499043,9.81926758784553
3.6800000000000024,-10.910379782999996,chest,-0.001807258245662716,0.032315652747982454,0.09690001026284774,0.9947677218407146,-1.1057489912147389e-05,-7.957738100539125e-05,-5.718823881117885e-07,-0.002299224552885286,0.002665535848110742,0.0008880667876062177,-0.6320861730319479,0.03499327556028952,9.804579207998584,0.003630451421160077,9.824995211469101
3.7000000000000024,-10.890379782999997,chest,-0.001797869533973996,0.03230393037274779,0.09690032207239152,0.9947680892197328,5.330960806126939e-06,-0.00010474386257541823,5.417817279251835e-07,-0.0008153531075404997,0.0006455041752994467,0.001860965277773491,-0.6333138067017929,0.029766539090129024,9.80791851292778,0.0021318227166871864,9.828389388950765
3.7200000000000024,-10.870379782999997,chest,-0.0017987376005756128,0.03230242548733969,0.09690029595837245,0.9947681390624948,3.314142597687919e-06,-0.00010757278047557328,4.186600519595629e-07,0.00148393114047505,-0.0003970503811338792,0.0019529729544647406,-0.6294530106555145,0.02014260459253748,9.810582668993765,0.0024847140671918127,9.830775611430866
3.7400000000000024,-10.850379782999998,chest,-0.0018018114080071803,0.03229931109067753,0.09690019996177314,0.9947682439775036,-3.3982549592082023e-06,-0.00011317971261060045,-2.4478579163655922e-09,0.001280910594997005,0.0007670383838535018,0.0006815619958572918,-0.6319981856149204,0.022795768808700646,9.805069764663743,0.0016412210664249799,9.825443218685825
3.7600000000000025,-10.830379782999998,chest,-0.0018034997499777304,0.0322949501200915,0.09690012717781246,0.9947683895954458,-7.5971693167531384e-06,-0.0001215379674346373,-3.0020892793913845e-07,-0.0013372339652045122,0.0016652668967943945,-0.0015745669451262484,-0.6370121768861087,0.023752382998037634,9.798103589086644,0.0026534071643718802,9.818817781773518
3.7800000000000025,-10.810379782999997,chest,-0.001804117544165227,0.032296668624411405,0.09690009801739795,0.9947683355233371,-8.491548837419316e-06,-0.00011799561417458193,-3.8147857406301e-07,0.0019586323770907467,-0.0010929071900069255,-0.0008163859066121718,-0.633632147637879,0.02472244573028106,9.802633243974672,0.0023868751251525416,9.823121673567954
3.8000000000000025,-10.790379782999997,chest,-0.001806861482027725,0.03229038686988963,0.09690002453237216,0.9947685416281535,-1.516258093126055e-05,-0.00012997467187036982,-7.673873581026669e-07,0.0011450447239496273,-0.000871216076694748,0.0008000128778598084,-0.6319414100924313,0.022885443732310943,9.808569209698023,0.0016462580225705204,9.828931967958702
3.8200000000000025,-10.770379782999997,chest,-0.0018110094724489855,0.03230490580139504,0.09689989305420665,0.9947680754989764,-2.0594540986351717e-05,-0.0001002542672916551,-1.1545765818965492e-06,-0.0008703683708698798,-0.0017031567338422632,0.002541549556094496,-0.638715584009969,0.02722881488152344,9.803587573264526,0.0031808423581068997,9.82440982004943
3.8400000000000025,-10.750379782999996,chest,-0.00182294135175907,0.03231605076802081,0.09689945877752427,0.994767734014433,-4.2146597841963285e-05,-7.574496937712283e-05,-2.6837241811072943e-06,-0.0011224605862829372,-0.0016348420106858006,0.0013287100906160475,-0.6207647295163415,0.02023144896102485,9.78812159820853,0.002387068635914504,9.807807225993733
3.8600000000000025,-10.730379782999997,chest,-0.0018401864303059258,0.032305012800299744,0.09689892535116137,0.9947681127416903,-7.855938753564828e-05,-9.438599137046033e-05,-4.972095556166067e-06,-0.0008756984454432199,-0.0023527949323269982,0.002160136676991248,-0.6332961722995852,0.02952475814770921,9.794679536909053,0.003311900092728956,9.815176156541355
3.8800000000000026,-10.710379782999997,chest,-0.001855128188114633,0.03230392397498762,0.09689845407158341,0.9947681662547114,-0.00010846674135756018,-9.365847052067444e-05,-6.889556744660297e-06,0.005109776130448822,0.00028759725756521276,0.0009206312426935253,-0.6336794728857946,0.02102808563057451,9.797563768517918,0.005200008285655609,9.818057223958165
3.9000000000000026,-10.690379782999997,chest,-0.0018510606082554931,0.03228648488552385,0.0968986119080458,0.9947687246182679,-0.00010376195628580831,-0.00012917907423815045,-6.481881160258496e-06,0.0001321043696156177,-0.002836418568817681,0.0011719878874381327,-0.6234318940469138,0.017345244082462123,9.798649939443989,0.0030718524493059526,9.81847792785485
3.9200000000000026,-10.670379782999998,chest,-0.0018489503976404158,0.032269895804367565,0.09689871879938916,0.9947692564118773,-0.0001027834920588333,-0.00016262734139771418,-6.293974881277364e-06,-8.128746893386018e-05,-0.00310008646235536,-0.0006203570470598488,-0.6297383627108766,0.026807708800103087,9.798866615824572,0.003162591752427344,9.81911788367174
3.9400000000000026,-10.650379782999996,chest,-0.0018452657943430091,0.032266706039568674,0.09689883254809699,0.9947693556429652,-9.607804658706698e-05,-0.00016969434987790244,-5.860187395345662e-06,-0.001314684116703398,-0.0005649482950742246,-0.0026318322794133724,-0.6477280067140955,0.030244094660338276,9.794113093083501,0.0029956805653776996,9.815554877644631
3.9600000000000026,-10.630379782999997,chest,-0.0018519010274077538,0.03228482212309919,0.09689857989745239,0.9947687801378378,-0.00010575395025291812,-0.00013232781212058065,-6.616421228233804e-06,-0.0029713619886087344,0.0001096631254824344,0.00018656911735948122,-0.6531733175824569,0.024587234815749245,9.801676054963501,0.0029792324689409057,9.823446106197276
3.9800000000000026,-10.610379782999997,chest,-0.0018423967522922498,0.03228559712524893,0.09689889318714355,0.9947687421162669,-8.671517977276721e-05,-0.00013262640305344853,-5.369164278956617e-06,-0.0007576182269403132,-0.0021231153426056306,0.0005952958772515911,-0.636643572636191,0.02544700378090886,9.799604408658494,0.0023315191007736457,9.820295777357186
4.000000000000003,-10.590379782999996,chest,-0.001836086199165722,0.032283382193497745,0.09689907763676982,0.9947688077009457,-7.460111724810758e-05,-0.0001382609177635885,-4.61513213467768e-06,-0.001184276203920553,7.878380994178055e-05,-0.0007820025730676943,-0.62719483029486,0.022529608975476203,9.792845270384555,0.0014213532425705836,9.812935311522356
4.020000000000003,-10.570379782999996,chest,-0.0018412844515868535,0.032283010450621236,0.09689889713954623,0.9947688277388637,-8.500345466266879e-05,-0.0001379937892977967,-5.315142231676617e-06,-0.0045871110296226425,0.0010220103516518889,-0.001321943094986514,-0.6325485777564643,0.020322469022103263,9.8001131118744,0.004881969510694617,9.820526855087836
4.040000000000003,-10.550379782999997,chest,-0.0018481633892067598,0.032284010360993744,0.09689868048101323,0.994768803636371,-9.848156142311382e-05,-0.00013466903250036744,-6.182289955969367e-06,-0.003593694497794474,0.0004100379634788483,-0.0010623363953156928,-0.6326539492895291,0.018514138722679603,9.806825572124097,0.0037697917570847996,9.827228581596716
4.060000000000003,-10.530379782999997,chest,-0.0018499979956189468,0.03228059673041865,0.09689862972803268,0.9947689159493143,-0.0001027894053970968,-0.0001411121267604898,-6.435457270193012e-06,-0.00208271490788411,0.0021411640171068013,-0.002279917633218558,-0.626627753055641,0.01896807245673972,9.801564535842898,0.003757699981363143,9.82159302144848
4.080000000000003,-10.510379782999998,chest,-0.0018478634831956,0.032274570245336524,0.09689871293742722,0.9947691073546144,-9.971532849561981e-05,-0.00015352834994675213,-6.190236979897179e-06,-0.0020110164898958552,0.0012212782121544623,-0.002819275839778284,-0.6281928818211324,0.023923817016643135,9.796026400034298,0.003672059919837065,9.816177049949756
4.100000000000003,-10.490379782999996,chest,-0.0018520606435181541,0.032274758552623274,0.09689856452691976,0.9947691078960811,-0.00010801957759287717,-0.0001523398517575547,-6.7559609053802205e-06,0.0012266914340544933,-0.0003543951575272202,-0.0010507098692590958,-0.6325591704974813,0.023125817447536952,9.792590538283688,0.0016535897409635436,9.813026819391471
4.120000000000003,-10.470379782999997,chest,-0.0018605735390321114,0.03227076442268453,0.09689827865341975,0.9947692494361121,-0.00012571120185089768,-0.00015864476420679452,-7.915708442496339e-06,-0.00014606065272502344,0.0012924931680632454,-0.0023181298376554124,-0.635707458131084,0.025877233182918614,9.802243444604624,0.002658119306576161,9.822869751290353
4.140000000000003,-10.450379782999995,chest,-0.001848031285037692,0.03228734988324638,0.09689866156535928,0.9947686973385966,-9.757071659510785e-05,-0.00012804359512763597,-6.1790989285270825e-06,0.0008381993164236232,0.0008934812349247566,-0.0025866799754951674,-0.6348517540621857,0.02828298293226616,9.810769823536344,0.0028621320910893295,9.831329574740678
4.160000000000003,-10.430379782999996,chest,-0.001837244348864417,0.03230355073390377,0.09689899864778806,0.9947681585194817,-7.299395341853199e-05,-9.786819756807397e-05,-4.6501700197154605e-06,3.769487189301309e-05,0.000850737229037648,0.0020451076203452244,-0.6360465590588874,0.025002168898045456,9.79100228719507,0.0022153193708880424,9.811671933039719
4.180000000000003,-10.410379782999996,chest,-0.001833201123586163,0.03228515968331454,0.09689917195558652,0.9947687461476588,-6.852304614390903e-05,-0.00013528000122309258,-4.2229584593656e-06,-0.0013571156541579445,0.00037924161549111185,0.0025086399581868936,-0.6356672541451261,0.028006480428444017,9.796692123903147,0.002877301086346855,9.817333334031414
4.200000000000003,-10.390379782999997,chest,-0.0018379395957404299,0.03229831766720065,0.09689898344642182,0.9947683286378598,-7.538970991838312e-05,-0.0001081557807900424,-4.776765767378066e-06,-0.001629922671996352,-0.00043332005954480643,0.0020092927114655317,-0.6356705815115461,0.022215335039960232,9.799638360152684,0.00262329399630315,9.820258784730989
4.220000000000003,-10.370379782999997,chest,-0.0018343437587547778,0.03229837584207686,0.09689910141377185,0.994768321895175,-6.823208214079557e-05,-0.00010873687007229016,-4.308224134330629e-06,-0.0031326281648395367,-0.005524112682090004,0.003031317614425516,-0.6369970710036547,0.014522803747969572,9.799688832339495,0.00703690746159845,9.82038071517471
4.240000000000003,-10.350379782999998,chest,-0.0018568393078667812,0.03232122303957921,0.09689834454630582,0.9947676118135311,-0.00010851353972096689,-5.8873532878367385e-05,-7.050153901566603e-06,-0.0013078561334539033,0.0009459232203875671,0.0008926306883651858,-0.647183079981894,0.02105594317161842,9.802867779686977,0.0018444641364072888,9.824230554999348
4.260000000000003,-10.330379782999996,chest,-0.0018632906558579594,0.0323287947089625,0.09689809642343804,0.9947673778779197,-0.00011986614627623737,-4.254323214802902e-05,-7.889244069136936e-06,-0.0017552697815216897,0.001924095957214673,-0.0019391246358554754,-0.64072038688549,0.021787849719056954,9.80545447039925,0.0032470481382133338,9.826389708109417
4.280000000000003,-10.310379782999997,chest,-0.0018707558704209074,0.032326589360391025,0.09689786383597303,0.9947674581915229,-0.00013513045778168475,-4.548856929442735e-05,-8.858075057016634e-06,-0.0018840323854275995,-0.0005433606380482823,-0.00045680491239297964,-0.6322621233479084,0.02277760170619143,9.804317225324795,0.0020133279763383323,9.82470917974473
4.300000000000003,-10.290379782999995,chest,-0.0018673469949514908,0.032314295524038875,0.09689799899688785,0.994767850862896,-0.00013073816488340384,-7.063405559826208e-05,-8.487525928302375e-06,0.0016035475962366719,-0.0022714500118317803,-0.002161366590365799,-0.6311591007472299,0.038087348320932704,9.798165825907185,0.0035216978274117275,9.818547041621464
4.320000000000003,-10.270379782999996,chest,-0.0018497111093926052,0.03231667332649008,0.09689856158858964,0.9947677517672067,-9.52270219674034e-05,-6.931653506403457e-05,-6.200511340370696e-06,-0.0006944979237879872,-0.0033568675931733892,-6.603084156821737e-05,-0.6388975102445147,0.0281176539692453,9.800923385569389,0.0034285926378445335,9.821765617284008
4.340000000000003,-10.250379782999996,chest,-0.001846154336236451,0.03233022303954523,0.09689865585549229,0.9947673089148934,-8.55325621156311e-05,-4.30198680816396e-05,-5.649504908777914e-06,-0.001321360741489724,-0.0010438926595634146,0.002387641184169763,-0.637204535206454,0.01565986439618919,9.801480701504834,0.0029217351896063818,9.822184013396017
4.360000000000003,-10.230379782999997,chest,-0.0018658049529807236,0.03232620222026548,0.09689804085182176,0.9947674628278564,-0.00012536691912234943,-4.721913952865364e-05,-8.18792487500275e-06,0.0004575137160169741,-0.0007646629965096378,-0.00039135574941245,-0.6306605388603375,0.02419528755687165,9.79809923759304,0.0009732356452437092,9.81840449344683
4.3800000000000034,-10.210379782999997,chest,-0.0018632975484401343,0.03232562771081003,0.09689812463597856,0.9947674780356355,-0.00012049506355360506,-4.884932739357417e-05,-7.864014286429466e-06,0.0016158524899511997,-0.0006103748624398413,0.00031989454864905656,-0.6350400944090212,0.027377229650531174,9.801248449506948,0.0017566642434555702,9.821837740625362
4.400000000000003,-10.190379782999997,chest,-0.0018568623046140002,0.03233485352753475,0.09689831348033365,0.9947671718318822,-0.00010591737804865886,-3.1722175795056984e-05,-6.980472119888503e-06,0.003111052545773739,0.0012728106618480808,0.003045124470835871,-0.6480232370197475,0.022007430865116258,9.802326850400306,0.004535579121387131,9.82374827267116
4.4200000000000035,-10.170379782999996,chest,-0.0018633286746960493,0.03234564131885853,0.09689809731027682,0.9947668300820902,-0.00011667908019319384,-8.983512818083739e-06,-7.724966065492112e-06,0.0013660885494144,0.001291440054503503,0.0020250587718873368,-0.6408930389462347,0.0234005957637466,9.802700229470164,0.0027631283663295484,9.823656308325646
4.440000000000003,-10.150379782999996,chest,-0.001872155279592357,0.03234615481937386,0.09689781485606158,0.9947668243257466,-0.00013412213381158722,-6.250040537780777e-06,-8.855236216298579e-06,-7.658437220251922e-05,0.002051054241605504,-0.0015704232388792044,-0.6302801528648907,0.027110271992236642,9.803564078271759,0.002584360233652699,9.823841238269441
4.4600000000000035,-10.130379782999995,chest,-0.0018706069341804304,0.03234008897568665,0.09689786463701272,0.9947670196098831,-0.00013221967349785757,-1.8631104438338042e-05,-8.714938113829618e-06,0.00035861099619875173,0.004010253494361691,-0.0024890032013592826,-0.6363907458063741,0.028831270130762233,9.799713123406423,0.004733484115533882,9.82039722845005
4.480000000000003,-10.110379782999996,chest,-0.0018573204379493332,0.03233403656171577,0.09689829354069891,0.994767199473986,-0.00010698578060885922,-3.3260494472164837e-05,-7.057997232884361e-06,0.00018200742984297576,0.003550714070804552,5.548709371492558e-05,-0.6367921700456599,0.02883568740030372,9.797973928225193,0.003555808759578671,9.818687736295514
4.5000000000000036,-10.090379782999996,chest,-0.0018544121731910667,0.03232278067277798,0.09689839596590012,0.9947675607217533,-0.00010338633506634665,-5.624179657726103e-05,-6.775549748816445e-06,0.002172970466008603,0.0022385223847489087,0.0020848815272320135,-0.6241589830915266,0.02089594365551457,9.80399994875635,0.0037522678603427125,9.823870218597637
4.520000000000003,-10.070379782999996,chest,-0.0018631847170658541,0.03232142883297336,0.09689812748185853,0.9947676144062063,-0.00012108398266796883,-5.7233838513415236e-05,-7.892120480246234e-06,-0.002087858043520643,0.0003589555320526045,0.002213826379894784,-0.6241217722624822,0.02020327976292809,9.808917439019847,0.0030641520073591416,9.828773956330105
4.540000000000004,-10.050379782999997,chest,-0.0018714616969749487,0.03232404817987543,0.09689785583023955,0.9947675402202688,-0.00013702636563728277,-5.0412835742585926e-05,-8.944371265418027e-06,-0.0016332121599325715,6.79491188083704e-05,-0.0009716862885879164,-0.658217107430523,0.03129849091975199,9.806629159118588,0.0019016238549009132,9.828743806841391
4.560000000000003,-10.030379782999997,chest,-0.0018675385324843218,0.03234388979702551,0.0968979491775826,0.9947668935674359,-0.00012538434670972265,-1.1655995842074773e-05,-8.310529235888708e-06,-0.0010816788911488285,-0.00202944006045882,-0.002552377331895067,-0.6449850723539862,0.022891696803704207,9.809710137989102,0.0034355911029870594,9.83091769697561
4.580000000000004,-10.010379782999996,chest,-0.001875726835456127,0.03234443519738882,0.09689767511279349,0.9947668871239816,-0.00014155184013908695,-8.982746451335899e-06,-9.382544507552382e-06,0.0006538157423187703,-0.0005235458556263205,-0.002294176330660313,-0.6378308879421154,0.02514510208857323,9.806316822997417,0.0024422981644363897,9.827070273014954
4.600000000000003,-9.990379782999996,chest,-0.0018621067934077935,0.032350277756835646,0.0968981065671069,0.9947666807000801,-0.00011335073837770437,1.3686340505358885e-08,-7.582310952880533e-06,0.00241666729780656,0.0007625025821333844,0.000986506224294522,-0.6427647720434306,0.02381499780141232,9.80010721320658,0.002719353884035613,9.821192142334045
4.620000000000004,-9.970379782999995,chest,-0.0018653747940239498,0.03236647770075992,0.09689797901369192,0.9947661600402308,-0.00011670673818109378,3.2911468209606554e-05,-7.890074416927462e-06,0.0004864642611071587,0.0011189179568352684,-0.0015868278004852686,-0.6524136089694643,0.01761530640285505,9.810373321255717,0.0020016611451131937,9.832058712120984
4.640000000000003,-9.950379782999995,chest,-0.0018728141352037898,0.03238328131448064,0.09689772096745754,0.9947656243205407,-0.00012823641196213487,6.782005475503006e-05,-8.722801212446285e-06,-0.0016482516163851997,-0.0030415262594033323,-0.0036513145130622664,-0.6522516227971072,0.022277002072787197,9.788917856888192,0.005029882011623691,9.810649379789664
4.660000000000004,-9.930379782999996,chest,-0.0018758140959067406,0.03239408401321206,0.09689761328283174,0.9947652774310699,-0.0001321057626615385,8.991657099755024e-05,-9.02652812229121e-06,-0.00020870282973413758,-0.0016950022866067103,0.0009192297337160676,-0.6409407790944922,0.02594254824467837,9.801953083724788,0.0019394774879045967,9.82292025589425
4.680000000000003,-9.910379782999996,chest,-0.001862984363818096,0.032385491351139904,0.09689804023979616,0.9947655397312939,-0.00010827238507626902,7.031646283994775e-05,-7.426582626202105e-06,0.002351298479549976,-0.003480233995868855,-0.0012982313499542886,-0.6385250507720764,0.03669666368008414,9.794769607546266,0.004396138970043993,9.815628994134853
4.700000000000004,-9.890379782999997,chest,-0.0018425457184174918,0.032384924951762706,0.09689870868659026,0.9947655311258103,-6.776197897728764e-05,6.522696463462374e-05,-4.7728505045974146e-06,0.0008024336217521818,0.000546163716925209,-0.0003867197491387239,-0.635378720830275,0.03266978289239755,9.798444427643272,0.0010448668275803387,9.819077687604455
4.720000000000003,-9.870379782999997,chest,-0.001826118658873589,0.03237655835181449,0.09689924227701734,0.9947657817828653,-3.673478287424814e-05,4.537973802376527e-05,-2.72564897896288e-06,0.0007922691691888362,0.00042522403089013516,0.001329014763147172,-0.6337730676837424,0.028556666084798503,9.809832740612448,0.0016046140201172235,9.830325639738039
4.740000000000004,-9.850379782999996,chest,-0.0018159761502753184,0.03237047274137539,0.09689958103607185,0.9947659654009858,-1.775654023639106e-05,3.129352878850078e-05,-1.4523453217840654e-06,0.0007572545580297996,-0.0009587863315260008,0.00036733223395498315,-0.6354227243177636,0.031029645714153828,9.809247156535157,0.001275789428267985,9.829855271339737
4.760000000000003,-9.830379782999996,chest,-0.0018000033715505042,0.03237096397767925,0.0969001099461913,0.9947659269252412,1.4082695721562288e-05,2.9175921796964488e-05,6.432756505247994e-07,0.00027176189400878966,0.0003337313509906252,-0.00046042402958514496,-0.637523276172612,0.028649900058046088,9.799997616957908,0.000630255050506297,9.820754046243897
4.780000000000004,-9.810379782999995,chest,-0.0017820950854908488,0.03236809448234429,0.09690069055975097,0.9947659959838454,4.911840733967665e-05,1.99897060595422e-05,2.9338377252052794e-06,-0.0004285385233344914,-0.0009243922283250755,0.000637739387322969,-0.6341676592369699,0.02694303816557332,9.794207410636526,0.0012020223724675764,9.814753860892036
4.800000000000003,-9.790379782999995,chest,-0.0017767570518906362,0.03236083431221221,0.0969008658692095,0.9947662246632591,5.8321038784114876e-05,4.49538485347567e-06,3.5571580903059896e-06,-0.0029636472422800058,-0.002350693183253532,-0.0008359602392396582,-0.6270515247567376,0.028872325349793122,9.794128624380562,0.003873989279806816,9.814223491279456
4.820000000000004,-9.770379782999996,chest,-0.0017751040185604188,0.032349617712188874,0.0969009290532354,0.9947665862845506,5.943320054768719e-05,-1.8164402033393756e-05,3.678576514065668e-06,-0.002414412896325173,0.00032515675757713585,-0.0048717861900661515,-0.632638244455126,0.020030653180218565,9.793367614138853,0.005446964038127906,9.81380056864199
4.840000000000003,-9.750379782999996,chest,-0.0017808636425203771,0.03235073882537512,0.096900733374699,0.9947665585923084,4.8204085780767514e-05,-1.4815157467928941e-05,2.9261515517298164e-06,-0.0008990321655874816,-0.0002447176678388722,-0.0016158662067685561,-0.6374426324293451,0.02007131884575239,9.795472248939785,0.0018652531114811243,9.816211720782519
4.860000000000004,-9.730379782999997,chest,-0.0017885473248636212,0.03235061168934867,0.0969004810561069,0.9947665735200831,3.2908898935701814e-05,-1.3579016397535781e-05,1.9237140391759056e-06,8.45902764733105e-05,-0.0032987546221832005,-0.0011564313379097489,-0.6256075502218325,0.020728564599305565,9.798853395541869,0.003496608501326477,9.818825914925233
4.880000000000004,-9.710379782999995,chest,-0.0017949808561907744,0.03235788456326732,0.09690027118050167,0.9947663458297439,2.153143416805392e-05,2.152935268950884e-06,1.1604728098468797e-06,0.0015294269194186239,-0.0018482928229483632,-0.0007246832917176035,-0.6336959856845736,0.021282453054650888,9.791520568388858,0.0025060923635212315,9.812028260571962
4.900000000000004,-9.690379782999996,chest,-0.0017928757594228048,0.03236527245929119,0.09690032792657258,0.994766103756491,2.7146832869640036e-05,1.6458881421099747e-05,1.4833883152931548e-06,0.0012465245540308446,-0.0005172735956279439,0.0008601232172555007,-0.6419131820784828,0.021661596534488542,9.795454210228348,0.0016003772634593416,9.81648842217882
4.9200000000000035,-9.670379782999996,chest,-0.0018112718793120153,0.032370037669475986,0.09689971227112304,0.9947659753516047,-8.49000256231136e-06,2.9515142107028325e-05,-8.901752903689442e-07,0.00024726959069227054,-0.0020140611575857697,-0.00015141315891177229,-0.6384971747725677,0.02982390668376867,9.811415325204017,0.002034824449840451,9.83221433814635
4.940000000000004,-9.650379782999995,chest,-0.0018159548739730537,0.032391655953288565,0.09689953533591235,0.99476528034717,-1.3608444785262463e-05,7.347860085182845e-05,-1.3328520966915391e-06,0.0017406461463595835,0.00024688235894689946,-0.00295326793137185,-0.6334348678654433,0.013597610869892144,9.798227400086724,0.0034369450650926937,9.818690585340763
4.960000000000004,-9.630379782999995,chest,-0.0018491213549380531,0.03238761835645849,0.09689847558693668,0.9947654539419526,-8.030768312661252e-05,7.186571245387796e-05,-5.638120524231738e-06,-0.0006155050268873358,0.0018389013909995595,-0.0018696800406526387,-0.6369392305287945,0.025507140682723983,9.794753401143568,0.00269371643243281,9.815474333256947
4.980000000000004,-9.610379782999996,chest,-0.0018430418888709269,0.032384456082253946,0.09689868803741633,0.9947655474821592,-6.883859854767138e-05,6.438930209773375e-05,-4.8509099959126445e-06,-0.0012546615331753123,-0.0018936439458445797,0.00020397400506279566,-0.6448906613770843,0.02281310975027121,9.808013200424679,0.002280716631062485,9.829218043303984
5.0000000000000036,-9.590379782999996,chest,-0.0018347876125271452,0.032383574159800685,0.09689896209336214,0.9947655647559794,-5.260499266590557e-05,6.103296903359201e-05,-3.7774413255142747e-06,0.0010283353432708365,-0.00043415528283428104,4.705427242307806e-05,-0.6385598144104329,0.020499092254556733,9.805449003202757,0.0011172190888031448,9.826240837867402
5.020000000000004,-9.570379782999996,chest,-0.0018303871680186905,0.032385021512502436,0.09689909656561092,0.9947655126456778,-4.3578542756606e-05,6.306263416910873e-05,-3.209587928765245e-06,-0.0009779703059889775,-0.0030067657005730243,5.428578194925521e-05,-0.6356132949291429,0.022028442046994702,9.800605127046762,0.003162279690928746,9.821219393193747
5.0400000000000045,-9.550379782999995,chest,-0.0018467735781682064,0.03238542748610475,0.09689856204594932,0.9947655212095565,-7.606662323667024e-05,6.704726287010132e-05,-5.334791735034372e-06,-0.0007727462993687116,-0.003048726372139498,-0.0005703864751767391,-0.6384324046237788,0.020252943377476136,9.804338205648708,0.0031964370893905365,9.825123600633841
5.060000000000004,-9.530379782999995,chest,-0.0018648963618054517,0.03238345601098588,0.0968979717077243,0.9947656090845086,-0.0001124661273710359,6.663336031964562e-05,-7.707388797850712e-06,-0.0005132551612415389,0.00020386441822519774,0.0005468618119026605,-0.6305166152396454,0.025106663966886947,9.803220633350737,0.0007772061521094884,9.823508351542356
5.080000000000004,-9.510379782999996,chest,-0.001865200147058235,0.03236339090499595,0.09689799899715283,0.9947662588507361,-0.00011695840526204648,2.6729873971786944e-05,-7.86895418780631e-06,0.0008827072720707375,-0.0010831889650269324,-0.0002513124862017842,-0.6322116074091234,0.028840564713985647,9.794304938128665,0.0014197282936687576,9.814730384262596
5.100000000000004,-9.490379782999995,chest,-0.0018519909815941833,0.032353406316404584,0.09689843898842283,0.9947665654568094,-9.2640624433038e-05,4.284011255073494e-06,-6.232903695391201e-06,0.0006820823959270605,-0.0004182856884048683,-0.0021828784580822562,-0.6421298177571109,0.026950607711103507,9.796529783228724,0.0023248994977670546,9.817588952069453
5.1200000000000045,-9.470379782999995,chest,-0.0018367244307864296,0.032363941745919264,0.09689890555768244,0.9947662056080089,-6.0257078635217454e-05,2.2307698689827404e-05,-4.209416121891962e-06,-0.0011565681078539868,0.0004766690506005798,-0.0029190075620941446,-0.6401250666729452,0.02732916169061599,9.803928020683294,0.0031757626358826334,9.824841556931124
5.140000000000004,-9.450379782999995,chest,-0.0018284858314760349,0.032372189885896754,0.09689915931702578,0.9947659276861112,-4.228505971148877e-05,3.7138132640279764e-05,-3.0878871815076536e-06,-0.002233052390966032,-0.0005170059332395087,-0.0019075172471772785,-0.632112984673447,0.024539147708415435,9.806966601099983,0.0029820194774821222,9.827347704760099
5.160000000000004,-9.430379782999996,chest,-0.0018301881435855878,0.03236786714508719,0.0968991194369168,0.9947660691037804,-4.6506512278554624e-05,2.8858786836893913e-05,-3.3202921501107596e-06,-0.002172842053170113,0.0016506925557913585,0.0011139985423405858,-0.6324826949040991,0.018249933326786212,9.811717248580317,0.0029473753161255983,9.832098595188521
5.180000000000004,-9.410379782999996,chest,-0.0018325638098372393,0.03236267247740663,0.0968990495932974,0.9947662405449427,-5.223455340441774e-05,1.897336873923905e-05,-3.664790160673448e-06,0.0007956514204743314,0.0015595346869905185,0.0019691283370464013,-0.6353091237022618,0.03440577425854381,9.815614393151556,0.0026348958291721064,9.836213059658968
5.200000000000005,-9.390379782999995,chest,-0.001837190177738409,0.03235591397109362,0.09689887973449389,0.9947664684083125,-6.273682792823365e-05,6.409515648231334e-06,-4.370381061491457e-06,0.002896989998599427,0.0019450007585507714,-9.073188364218236e-05,-0.6432056907856063,0.02394627230371678,9.810642557368972,0.0034905316611452534,9.83173404710865
5.220000000000004,-9.370379782999995,chest,-0.0018272926279051594,0.03234832259340987,0.09689924723006828,0.9947666977303226,-4.453945996285569e-05,-1.0628023720204993e-05,-3.0701698072732597e-06,0.0013622895427156635,0.0017022642792706981,0.001602023837357418,-0.633400349693783,0.031143563610650623,9.789751268853024,0.002705552965686465,9.810269916294656
5.240000000000004,-9.350379782999996,chest,-0.0018221755193817246,0.03233862168833596,0.09689940925087377,0.9947670067460556,-3.6248186959575435e-05,-3.094054810048874e-05,-2.511283316408708e-06,0.0017286589860314194,0.001310123740152417,-0.0016281254356598923,-0.6359390503863716,0.01780699590660084,9.808794042140798,0.002712098548862273,9.829403650580556
5.260000000000004,-9.330379782999994,chest,-0.0018341575301690936,0.03234173496613559,0.0968990135041608,0.9947669220613718,-5.945812727503608e-05,-2.2417630522131304e-05,-4.046248472722169e-06,0.0001222425436184602,-0.0007622786912409227,0.0004561031426227986,-0.639458948287726,0.025429156990283357,9.807578443403386,0.000896683957311983,9.828435751027794
5.280000000000005,-9.310379782999995,chest,-0.0018375822152419251,0.03235273741914193,0.09689889607300778,0.9947665694085839,-6.413309436403836e-05,1.5903944139417092e-07,-4.394093501058904e-06,-0.0022661408550212897,-0.0002909328441271351,-0.001113035268221382,-0.6344699239255079,0.023898212059107395,9.798692450429575,0.0025414334150028737,9.819241159428321
5.300000000000004,-9.290379782999995,chest,-0.001837146395457785,0.032358524772401885,0.09689889549268199,0.9947663820314667,-6.214509077473451e-05,1.1600841404835194e-05,-4.310187831091383e-06,-0.003550665657250554,0.0008815614495377074,-0.003122088239156228,-0.6321411894283073,0.026455595026905785,9.797197487451166,0.004809554259176953,9.817605664824775
5.320000000000004,-9.270379782999996,chest,-0.0018255021602281512,0.03236217918185504,0.09689924680787602,0.9947662503666532,-3.829348560735468e-05,1.6622086698170335e-05,-2.818962634432154e-06,-0.0003171045421993027,0.0005928358511674393,-0.003214840781715848,-0.6309900679044607,0.02733332194439888,9.797617245897298,0.003284388967356975,9.817952906455945
5.340000000000004,-9.250379782999996,chest,-0.0018092076397900824,0.03235411889594908,0.09689980192452283,0.9947664882499667,-7.472125309604394e-06,-2.589343488290652e-06,-7.349775983378493e-07,-0.0017415078235272787,0.0012944318395660165,-0.0024987049940593015,-0.6414996683989728,0.03033888810948844,9.799917822006417,0.003309370020717822,9.820938427195577
5.360000000000005,-9.230379782999995,chest,-0.001814568859601795,0.032357966958421205,0.09689963114770192,0.9947663699570924,-1.7382074448235585e-05,6.113770360416382e-06,-1.3849179554270563e-06,0.0008899723682445804,-0.0009240162531614514,-0.0012198996747456198,-0.6424782812716868,0.03467186489644518,9.802254518956726,0.0017703141158534163,9.823348417649084
5.380000000000004,-9.210379782999995,chest,-0.001818604613057187,0.03234917513192706,0.09689950827507042,0.9947666604996345,-2.7106179995683988e-05,-1.0614100267147819e-05,-1.9783962157404744e-06,0.0004873312524630736,0.0007752280290518362,-0.0008497453123052891,-0.6386117630752361,0.026153989815003845,9.80560533652189,0.001249214690291319,9.826413640324118
5.400000000000004,-9.190379782999996,chest,-0.0018163871272034238,0.032341805039348616,0.09689959275593317,0.9947668959652484,-2.4127348380531544e-05,-2.57224269899492e-05,-1.7389035944503917e-06,-0.002125341597115335,-0.0007788700428429372,9.687190634811342e-05,-0.6409681869498439,0.02071444219255113,9.802987360670539,0.002265634483827089,9.823941698639272
5.420000000000004,-9.170379782999994,chest,-0.0018175753383611636,0.03234983859693312,0.09689954769244187,0.9947666369654956,-2.4932462190818683e-05,-9.492203749017492e-06,-1.8264368040199486e-06,0.0008280357557737196,-0.0020884419368124136,-0.00038585923838855174,-0.6451286580849948,0.02405882350023151,9.79951073278585,0.002279500008362872,9.820752538092782
5.440000000000005,-9.150379782999995,chest,-0.0018240989995977118,0.032367994033982765,0.09689931955522793,0.994766056665983,-3.438035152747432e-05,2.7931275814685463e-05,-2.52505273445891e-06,0.004024426707195694,-0.00016864245842997079,-0.0019468178728356976,-0.6449232020902962,0.0251932888119465,9.798319072689335,0.004473762446796632,9.819552804920555
5.460000000000004,-9.130379782999995,chest,-0.0018343860057262976,0.03238573656875681,0.09689896807407714,0.9947654945167027,-5.138755442857246e-05,6.526184873911767e-05,-3.7182041170424895e-06,0.0009168362322476267,-0.0006790643655944854,-0.0008469317404108245,-0.638639267250506,0.020967242635669642,9.799962592856126,0.0014209188795626488,9.8207721977611
5.480000000000004,-9.110379782999996,chest,-0.0018415018677288672,0.032383665054584065,0.0968987239076557,0.9947655725916392,-6.593019803347033e-05,6.251532837087126e-05,-4.6874552137587955e-06,0.0014335332091760396,-0.001220043532643085,0.0021160268633284027,-0.6342999984631658,0.02292852274608266,9.806477578472599,0.0028321534862507385,9.82699672851739
5.500000000000004,-9.090379782999996,chest,-0.0018449634299675154,0.03239256735117278,0.09689861678836664,0.994765286766101,-7.108598155625145e-05,8.091644934116182e-05,-5.0378496960767905e-06,0.0015481537671667,0.0011135152122371465,0.004462767765644154,-0.6388255658034879,0.029012619521782135,9.794593161742355,0.0048531425226082635,9.81544675700835
5.520000000000005,-9.070379782999995,chest,-0.0018370830621277287,0.03239621211916937,0.09689884682041155,0.9947651602519195,-5.471668807022212e-05,8.664804393099246e-05,-4.032056711622545e-06,0.0002157953984062408,-0.0006281952438369672,0.0031508991603430925,-0.6366244569232418,0.022852868606405854,9.802254286233573,0.0032201494432717716,9.822932456488786
5.5400000000000045,-9.050379782999995,chest,-0.0018418448051589677,0.032399236997684426,0.09689867748984389,0.9947650694261438,-6.359352371543281e-05,9.359541674758276e-05,-4.649165128434163e-06,-0.00016305634795967043,-0.0017272098483730946,-0.0056164344345110825,-0.649057528381172,0.02943744576967163,9.798977629324398,0.005878280104766084,9.820494122922824
5.560000000000004,-9.030379782999995,chest,-0.001833903022605707,0.032396111881694487,0.09689896732781665,0.9947651576454893,-4.841710789449394e-05,8.583208321932823e-05,-3.586082195639051e-06,-0.0015876760648661284,-0.0007223086541748287,-0.0004603149135556494,-0.6448812757183807,0.0256894545921785,9.797174256665913,0.0018039775216133907,9.818408996539445
5.5800000000000045,-9.010379782999994,chest,-0.0018387114377410715,0.032385498677325444,0.09689879677643976,0.994765510961728,-6.0028123703759206e-05,6.56263446259242e-05,-4.343250767036011e-06,-0.00035798850443497887,-0.0024829801409563482,-0.00041267185862567683,-0.6253858131607998,0.03428520262141256,9.794524899320228,0.0025423698024860135,9.814530090321467
5.600000000000005,-8.990379782999995,chest,-0.0018289004473802458,0.03238658179804819,0.09689911236041067,0.9947654630446097,-4.0319480794082097e-05,6.588190773748615e-05,-3.0666625394637492e-06,-0.00027714682860491405,0.0007271529348393977,0.0007346270858944537,-0.6320059694365706,0.0405678918491619,9.802772494108828,0.0010701582642679952,9.823208532374194
5.6200000000000045,-8.970379782999995,chest,-0.00180306249433982,0.0323800893805281,0.09689995519897661,0.9947656394647872,9.773946255009491e-06,4.794323292545144e-05,2.2613290351358728e-07,-0.0003016952020519045,-0.0007937274046216571,-0.00148646355729072,-0.6308510099141501,0.03049359710804646,9.805272258205845,0.001711898681272333,9.825592445940114
5.640000000000004,-8.950379782999995,chest,-0.0017945201006128323,0.03236372808596886,0.0969002492675691,0.9947661586995554,2.3581346991541352e-05,1.3701707994417944e-05,1.204198919246835e-06,-0.0009006977003187916,0.004685182675561586,0.00019533576721468202,-0.642563765411863,0.03157936333420394,9.799926762725581,0.004774971111189609,9.821020822887709
5.660000000000005,-8.930379782999996,chest,-0.0017892299547233716,0.032371025056544864,0.09690043145217113,0.9947659130555997,3.5507761702469054e-05,2.720925689292386e-05,1.983272875705211e-06,-0.000894103814666743,0.002923385400338544,0.0010955802849654148,-0.6418475567577411,0.026694622856602828,9.78987535725156,0.0032474451482848903,9.81092963992336
5.680000000000005,-8.910379782999994,chest,-0.0017932018087131235,0.03238073699096589,0.09690030912433559,0.9947656017327918,2.9494603666080366e-05,4.732181483624309e-05,1.5784938618423894e-06,0.000424466500935378,-0.0012138672940493274,0.001712189391418535,-0.6373580520024344,0.022336598066950927,9.785775872770634,0.0021413169149066035,9.80653525166587
5.700000000000005,-8.890379782999995,chest,-0.0017987735089225894,0.032368902818037365,0.09690014502981076,0.9947659928030419,1.6128062672038368e-05,2.48324380767162e-05,7.724463757519118e-07,0.0012129357709870267,-0.0013765963299745025,0.0014703638282774522,-0.6384484786170679,0.02606419471473919,9.797591088025829,0.0023512125441452303,9.818405518731527
5.720000000000004,-8.870379782999995,chest,-0.001796600773033168,0.032362886207399,0.09690020078014824,0.994766187056414,1.9281862592812615e-05,1.2428342417214466e-05,9.64510595835577e-07,0.0027678782098630957,0.0009351553352450566,0.0003447864595230168,-0.6378557284993223,0.0258650753411847,9.797037590126706,0.002941860463778431,9.81781413935187
5.740000000000005,-8.850379782999994,chest,-0.0017998037860106908,0.03235832701894673,0.09690009581108894,0.9947663398058202,1.2033131298494482e-05,3.968932181797058e-06,5.022363325224433e-07,0.0040050824350685915,0.0009161840964318586,-0.0004766764273015241,-0.6377000020410732,0.025541844560536025,9.795283931723835,0.004136097076543848,9.816053228335404
5.760000000000005,-8.830379782999994,chest,-0.0017959373570978529,0.03234643989306906,0.09690026237401143,0.9947667171689558,1.7412365830082877e-05,-2.0455235977490105e-05,9.675594250246888e-07,0.0028260545946994457,0.0009494255520074354,-0.0012626887565946744,-0.6334575998893869,0.02945671567088668,9.795350627433727,0.0032376498184728186,9.815856057589784
5.780000000000005,-8.810379782999995,chest,-0.0017786975139918964,0.03233898571189688,0.09690084485654994,0.9947669337610526,5.023001622106449e-05,-3.864284803611895e-05,3.172357736946907e-06,-0.00010567928768454114,0.0029928912003349675,-0.0025237412495266033,-0.6313563431550142,0.036463417820228404,9.800949107574757,0.003916354905195658,9.821331061630682
5.800000000000004,-8.790379782999995,chest,-0.0017754052735101486,0.032342540486236464,0.09690092652264827,0.9947668161182617,5.7463246368349985e-05,-3.220124961833548e-05,3.5835626084335104e-06,-0.0022278490586476497,0.0028973572699807436,-0.0012838958704955929,-0.6381766340483662,0.0316573892169549,9.806294786692646,0.0038738068078187794,9.827089551339842
5.820000000000005,-8.770379782999996,chest,-0.0017898218459778685,0.03235025366059873,0.09690042761694814,0.9947665880765736,3.0307322928635472e-05,-1.4045067613821516e-05,1.7308154909301265e-06,-0.0010647631999262995,-0.0011030044901998207,0.0013568360572730022,-0.638667349708934,0.01853895052462327,9.80338262695479,0.00204727713405743,9.824181930662204
5.840000000000005,-8.750379782999994,chest,-0.0017986778751285903,0.032351678612343886,0.0969001434668574,0.9947665534410411,1.2982389918647641e-05,-9.490490344488123e-06,6.044116775960617e-07,0.0010648543894912384,-0.0016449230981045839,0.000829618348938396,-0.6309737075530623,0.02180017317509876,9.801619906462262,0.0021278988402628567,9.821932389195673
5.860000000000005,-8.730379782999995,chest,-0.0018002531530755517,0.032349495783388416,0.09690011124246813,0.9947666247177489,9.42763300759708e-06,-1.3532505316105059e-05,4.1666326655587227e-07,0.0005297741020894654,0.0028550261232991713,-0.00045362567872576004,-0.6369147844721674,0.027776521287505723,9.79802344019878,0.002938981289556774,9.818742043281247
5.880000000000004,-8.710379782999995,chest,-0.0017983399198119646,0.032354530774709775,0.09690017078920325,0.9947664586288103,1.420540347218946e-05,-3.875479773096657e-06,7.093484426512475e-07,0.001978193876401245,0.0008523391035845436,-0.0011243515695937535,-0.6460337538092414,0.02532609492166734,9.803951888384836,0.0024297941090097785,9.82524674763486
5.900000000000005,-8.690379782999994,chest,-0.001802448969336108,0.03236867289091036,0.09690002353654217,0.9947660054664171,8.778955383981213e-06,2.5086919290373544e-05,2.895122195312183e-07,0.00199221134474459,0.0029270942333515975,0.0007520634232782771,-0.6420474117137747,0.027633575392501778,9.7975976206384,0.003619721824350908,9.818651008632324
5.920000000000005,-8.670379782999994,chest,-0.00180815166852671,0.03238159541519776,0.0968998144024128,0.9947655949190685,-5.032795913351151e-08,5.1929212923962353e-05,-3.694788102137636e-07,0.0007519724979428931,0.0012063848855277362,0.0009744929315615838,-0.643100155770711,0.03258050061464274,9.79594581101554,0.0017235032936886814,9.817086820015676
5.940000000000005,-8.650379782999995,chest,-0.001805168943431142,0.03238868132502061,0.09689989849435016,0.9947653614591215,7.2508783404146016e-06,6.546361446457816e-05,6.191349521955658e-08,0.002086911468216138,0.005907916086690288,-0.00016725090612995934,-0.6362528177938304,0.023498811447562322,9.786184622341302,0.006267905936526746,9.806874084275755
5.960000000000004,-8.630379782999995,chest,-0.0018213744784943962,0.03237994561741276,0.0968993771314211,0.9947656670936956,-2.6648760986347497e-05,5.1206348170795835e-05,-2.1157383893743997e-06,0.004069402870984687,-0.0013627317435665814,0.0020395824535651415,-0.6465242760562054,0.029009701276365263,9.796689840429263,0.004751523346906046,9.818042932879651
5.980000000000005,-8.610379782999996,chest,-0.001814354195364196,0.032388166663778896,0.09689958562179621,0.9947653919821182,-1.1102907237159343e-05,6.621893008884605e-05,-1.1633273677702505e-06,0.0011358233157741267,-0.00016806322288631117,-0.0006393863841048422,-0.6353092493103288,0.026837778663585114,9.804791118766344,0.001314212615873752,9.825388897710983
6.000000000000005,-8.590379782999994,chest,-0.0018126063182259768,0.032385303413568614,0.09689965383200702,0.994765481743503,-8.184426091517594e-06,6.017760871701583e-05,-9.421273023946242e-07,0.000595608643701364,-0.000504996867902827,-0.0002507526969539771,-0.6340735138223982,0.02119779508850954,9.798849974063767,0.0008201514543504368,9.819366546863254
6.020000000000005,-8.570379782999995,chest,-0.0018299092383721439,0.03238584432729318,0.09689909169787088,0.9947654872116922,-4.2468002840578833e-05,6.460869425684024e-05,-3.1804422415682154e-06,0.0006217816429201276,0.00012099263080381673,7.665556601360433e-05,-0.638230919294713,0.02318810421964548,9.802979928872022,0.0006380655953600287,9.82376159525407
6.0400000000000045,-8.550379782999995,chest,-0.001842394451669702,0.03238926798684275,0.09689867501192943,0.9947653932877306,-6.661768799354206e-05,7.384730357928859e-05,-4.7879118176830104e-06,0.00021437185488014024,0.0016139104919468401,-0.0009842805854306858,-0.6367104287265387,0.03048180977156332,9.805985175192548,0.0019024906409852893,9.82668176786407
6.060000000000005,-8.530379782999994,chest,-0.0018350538878511473,0.03238824067439615,0.09689891534848187,0.9947654168936181,-5.222791419789985e-05,7.037849345814529e-05,-3.842397927389385e-06,0.0020532602812054408,0.001596332063365716,-0.0011095986438123058,-0.6328417138883023,0.028426253493591024,9.801376054138446,0.0028276072904941025,9.821826166317713
6.080000000000005,-8.510379782999994,chest,-0.001837917804693719,0.03237170899417759,0.0968988506566688,0.9947659560199857,-6.112342554764894e-05,3.800851439894615e-05,-4.319938720076522e-06,0.003853348312478671,3.921111334020868e-05,-6.377700513297152e-05,-0.6392293208639841,0.025190633472200064,9.7964596990553,0.0038540755357251797,9.817325059703464
6.100000000000005,-8.490379782999995,chest,-0.0018463949980514545,0.032363634637677136,0.09689859075043755,0.9947662283617842,-7.953607101285343e-05,2.3570427361452317e-05,-5.467316732232774e-06,0.00433268692175426,0.0008628852777250409,0.0001320572767992415,-0.6438663015737958,0.0290956376624015,9.79690491108188,0.0044197495504621825,9.818083122851098
6.1200000000000045,-8.470379782999995,chest,-0.0018332424981245385,0.03237152529900022,0.09689901452831977,0.9947659546623014,-5.1867944748984485e-05,3.67365043500989e-05,-3.691555765961141e-06,0.0037636458881004165,0.0008089618569807498,0.0008383890846950502,-0.6418123829064082,0.02726998828226793,9.803647307381942,0.0039398408488669585,9.824671359116808
6.140000000000005,-8.450379782999995,chest,-0.0018237037608287176,0.03237355906917336,0.09689932937000774,0.9947658753422487,-3.251680858262773e-05,3.893820102485179e-05,-2.4248652654712544e-06,0.00118651889918935,-0.0014864624598213538,0.002917148006830716,-0.6412726184556898,0.020293330502722685,9.80556459246278,0.003482405811554431,9.826532418274702
6.1600000000000055,-8.430379782999994,chest,-0.001837684689480152,0.03238572251978456,0.09689885294608484,0.9947655001001928,-5.794566225159059e-05,6.587321243989308e-05,-4.1620824653421096e-06,0.0003461104142019546,0.0020836827598485156,0.002600520076377303,-0.6372850764071076,0.016809223750765385,9.801204272274486,0.0033502583378226805,9.82191529211416
6.180000000000005,-8.410379782999994,chest,-0.0018524334374862327,0.032384480507969125,0.09689836375029715,0.9947655608308441,-8.749767203308778e-05,6.625818788474902e-05,-6.107012689327007e-06,-0.002345510932118133,0.001342046352011834,0.0008790010444900357,-0.644362122422424,0.019476196872473286,9.796172700421561,0.0028416813297497874,9.81736122609034
6.200000000000005,-8.390379782999995,chest,-0.0018605985754824477,0.03239216490273631,0.09689808523545805,0.9947653225276588,-0.00010223617683813302,8.314527822728124e-05,-7.116924130912139e-06,-0.0011959676951944168,-0.0024116782409381154,0.0011451727068493842,-0.6424867289892987,0.02724091555278913,9.802483765952227,0.0029253976130221605,9.823554308200494
6.220000000000005,-8.370379782999994,chest,-0.0018548959276322764,0.03240344351994898,0.09689825309198886,0.9947649495015736,-8.871701740886806e-05,0.00010450290107910654,-6.301304360967208e-06,-0.0006061681338014603,-0.0008841897098505234,-0.000600482662338741,-0.6283888018750176,0.025598222162367724,9.799678851116004,0.0012287435359794655,9.819838763457886
6.2400000000000055,-8.350379782999994,chest,-0.001846312121000327,0.032392092854239746,0.09689857046362094,0.9947653042271734,-7.385814908378308e-05,8.023282211211402e-05,-5.222474547927902e-06,-0.0007376215862154424,-0.002314972164886458,-0.0021921990582881323,-0.6387836990687941,0.026694279302313256,9.792679606710454,0.0032724483861184812,9.81352796289012
6.260000000000005,-8.330379782999994,chest,-0.0018507753955059267,0.03241032723357773,0.09689838563331685,0.9947647200120764,-7.919443030424134e-05,0.00011741414161980934,-5.7016431247447485e-06,0.0003084214248213425,-0.0072447110600665525,0.00354129554206714,-0.6426493637839915,0.01896120463103039,9.795127705492899,0.008069803977508007,9.816205198495375
6.280000000000005,-8.310379782999995,chest,-0.0018575564152267848,0.03241800739812596,0.09689815939211777,0.9947644791541961,-9.118340660929647e-05,0.00013402457537803336,-6.517615823042888e-06,0.0030406977476508815,-0.00020344115309384788,-0.00026907411740893436,-0.6383726793022314,0.022936168122389078,9.803013505187065,0.0030593515613607887,9.823803719963447
6.300000000000005,-8.290379782999995,chest,-0.0018645302287859193,0.03243261914162027,0.09689792036602854,0.9947640131063143,-0.00010221265977605754,0.00016447759041771093,-7.303661547997109e-06,0.0016379366495880775,0.00316226770434676,-0.0017158599428941596,-0.6304238709638794,0.019133631926619293,9.798976332550863,0.00395309357916646,9.819253409442275
6.320000000000006,-8.270379782999994,chest,-0.0018628308968854739,0.03243576847761574,0.09689795961528185,0.9947639097829754,-9.822435757556036e-05,0.0001704205369468248,-7.084174380889152e-06,-0.0015137983450604065,0.0004665948570005728,-0.0010361973135520211,-0.6389183618194726,0.028189799454531872,9.798271462091343,0.0018928816821712432,9.819120886448898
6.340000000000005,-8.250379782999994,chest,-0.0018473541552107555,0.032452616556962806,0.09689845163488796,0.9947633412183992,-6.420149689922994e-05,0.00020097615567671312,-4.930813394476985e-06,0.002681233650644399,0.003175633829576756,-0.00030210161047943245,-0.6456312779924883,0.03019387267270629,9.80786627053108,0.004167124847176347,9.82913995208586
6.360000000000005,-8.230379782999995,chest,-0.0018402829817236812,0.032460619356027016,0.09689867060883926,0.9947630718838583,-4.8597295392305284e-05,0.0002155442936446761,-3.9552601149850375e-06,0.0018603959190175313,0.0007941205136576036,-0.001985236191508383,-0.639590875979797,0.03565674567785595,9.795302655395277,0.002834230601377314,9.816226464530182
6.380000000000005,-8.210379782999993,chest,-0.0018304335330112922,0.032448523211926886,0.09689898533709279,0.9947634540407525,-3.136455370444935e-05,0.00018954397914749954,-2.807203720589513e-06,0.003425352923466962,0.0010000012039773664,0.0012751391814295608,-0.6305707694295288,0.021525774559748634,9.804657052350473,0.0037893304145028973,9.824936781905276
6.400000000000006,-8.190379782999994,chest,-0.00183012016944565,0.03245096974488956,0.09689900930227867,0.9947633724755947,-3.0268811423539432e-05,0.00019435590154670557,-2.714572660433845e-06,0.0008460773671580654,0.0020093035046438532,-0.0006009281180156434,-0.6427830134276407,0.021740537622569833,9.807565319967939,0.0022614734329664404,9.828630634974795
6.420000000000005,-8.170379782999994,chest,-0.0018340786267349277,0.03245421931913569,0.09689886828753498,0.9947632729089727,-3.750581960382249e-05,0.00020159511865291968,-3.22109211081667e-06,0.0006944305799199955,0.0013219535630683704,-0.003102851709690586,-0.6362746631118991,0.025739294739932764,9.805443215820258,0.00344346973060124,9.826099155661284
6.440000000000005,-8.150379782999995,chest,-0.0018291099072774554,0.03243659844545344,0.09689907036440853,0.9947638370994137,-3.104625144167983e-05,0.00016553765303717327,-2.6692820340734613e-06,-4.5982738609370464e-05,-0.0026868432858357318,0.00031893830244020087,-0.6285011810016474,0.033516176794488324,9.8033408327714,0.0027060973551692492,9.823524242964458
6.460000000000005,-8.130379782999995,chest,-0.0018181932399030875,0.03241923351006152,0.09689947983155335,0.9947643832990488,-1.271689777215812e-05,0.00012883710165967344,-1.3150108495452173e-06,-0.0002094369375612485,-0.0005688911771312239,6.837038626570811e-05,-0.6291144245075515,0.027821126805922206,9.801246299440377,0.000610061891901884,9.821455492772643
6.480000000000006,-8.110379782999994,chest,-0.001810334429386298,0.032415140043924526,0.09689974972018277,0.9947645047393643,2.108189789851167e-06,0.00011916115364685176,-3.0687553032038295e-07,-0.0014114007161443302,0.00154833586206996,-0.001340555821833577,-0.6368519161287765,0.021533106622265534,9.796736446397695,0.002487264729528514,9.817438007847803
6.500000000000005,-8.090379782999994,chest,-0.0018040367020710393,0.032421716486149464,0.09689993138864739,0.9947642841641153,1.5899740573033228e-05,0.00013103831449456926,5.295080161005217e-07,0.00035552660379172376,0.00040490125009938336,0.001128936774496932,-0.639459448041792,0.02636382708427031,9.794970990141403,0.001250936620755527,9.815857585294323
6.520000000000005,-8.070379782999995,chest,-0.0017973467024825736,0.03241823905625097,0.09690014172071564,0.9947643891172563,2.85226044427489e-05,0.00012281576475214884,1.3487028622805042e-06,0.0018050279576058092,0.00033196477137073066,0.002502499434638281,-0.6316333683491003,0.030506444523368523,9.798204523439352,0.00310335785199431,9.818589676644853
6.540000000000005,-8.050379782999993,chest,-0.0017942768597029304,0.0324081228652979,0.09690026656879559,0.994764712121311,3.26627298257165e-05,0.00010207297343733934,1.6965320472905887e-06,-0.0012200386685974904,0.00017107701761150617,0.000822247830684639,-0.6331878748339806,0.027141115558174337,9.801331996847027,0.0014811661601230226,9.821800875471252
6.560000000000006,-8.030379782999994,chest,-0.0017934653747846642,0.03241681468088566,0.0969002904808043,0.9947644280494907,3.5959132841156816e-05,0.00011922665034269642,1.883535975633066e-06,-0.0007479316555188255,-5.207023122945982e-05,-0.00014524776665355318,-0.6444967071490706,0.026169354333948045,9.8029975876121,0.0007636818604793919,9.824195770818134
6.580000000000005,-8.010379782999994,chest,-0.0017891927811959259,0.032416184264503996,0.09690040655331274,0.9947644449801792,4.433000070847015e-05,0.00011714285345143516,2.3858472433246902e-06,-0.0018888131865191708,0.00035147039269727465,-0.0015229936056730315,-0.6347878970665429,0.03214336531768686,9.80145829472919,0.002451663968294273,9.822045284639639
6.600000000000005,-7.9903797829999945,chest,-0.001779068760722743,0.032406252411865344,0.09690074346485822,0.994764753916684,6.252662424977018e-05,9.539980185890862e-05,3.6159328926643752e-06,6.169590131330059e-05,-0.0023140351200891863,-0.0005624857239432865,-0.6249938387731442,0.02445561184587069,9.805037516113716,0.0023822164282207943,9.824966975407733
6.620000000000005,-7.970379782999994,chest,-0.001778307333157507,0.032396977101147396,0.09690077875484271,0.9947650539571852,6.224272054922153e-05,7.677915801740376e-05,3.643180617185493e-06,0.0015985365374169126,-0.0002530664569230604,-0.0019483497187081666,-0.6584928360668065,0.02888975210295988,9.818100445462488,0.0025328695820090374,9.840200393798826
6.640000000000006,-7.950379782999994,chest,-0.0017668466621894622,0.03239224126992037,0.09690117389242915,0.9947651901110397,8.410124608815295e-05,6.512564735783322e-05,5.127817873429308e-06,0.0016077408093973164,-0.0008597770243234301,-9.263197247525031e-06,-0.6535715885004646,0.0344766672097016,9.786212156194795,0.0018232204607724315,9.808072839652635
6.6600000000000055,-7.930379782999994,chest,-0.0017595910147447974,0.03239035099510613,0.0969014232409746,0.9947652402329649,9.815431997761692e-05,5.995451190754508e-05,6.077093118506127e-06,-0.0011331064461609784,-0.002945498234754251,0.0019051011100396215,-0.6352644307017037,0.03252237717774774,9.78659278452189,0.003686366816900642,9.807243085189027
6.680000000000005,-7.9103797829999944,chest,-0.0017761356012748906,0.0323871069046394,0.09690090050878275,0.9947653673752723,6.464383192383849e-05,5.670046106898141e-05,3.929009587011478e-06,0.0023036455442931687,-0.0003356537262963323,5.1090039188571313e-05,-0.6253276184901283,0.022512969182508683,9.805433823309254,0.0023285309553069448,9.825379072968385
6.7000000000000055,-7.890379782999994,chest,-0.0017708080981558023,0.03237986301556951,0.09690106481711777,0.994765596684506,7.382938541411477e-05,4.1240562802302705e-05,4.529747705372955e-06,-0.0010227499671754759,0.004266396965983746,-0.003028145039339093,-0.6304988323642806,0.022257539839111582,9.80200884818383,0.005330836983625246,9.82229105838177
6.720000000000006,-7.8703797829999935,chest,-0.0017654329443767703,0.03238492183753186,0.09690123669596908,0.9947654248167694,8.549212643238491e-05,5.0273992947991175e-05,5.271743880097546e-06,-0.004064393389560405,0.0023821320362600543,0.0009366493509157317,-0.6509633177258751,0.022276875248087972,9.796542103165672,0.004803244598170039,9.81817124923441
6.7400000000000055,-7.850379782999994,chest,-0.001772762911645984,0.03240269023779635,0.09690095117098993,0.994764860979302,7.436893331025374e-05,8.708293651338295e-05,4.403875379033195e-06,1.3735118434654407e-05,0.0020206113579616784,0.000941061040801772,-0.6314030846281566,0.021093567940977574,9.801922100469902,0.002229047957294115,9.822260007634023
6.760000000000005,-7.830379782999994,chest,-0.001782088343364742,0.032382285978922454,0.09690069187619828,0.9947655339977506,5.188042575809959e-05,4.8252731144282635e-05,3.078435301340221e-06,0.0035714916399369866,-0.002514512683726269,-6.19417490132203e-05,-0.6345827895808799,0.024291405223340445,9.797497499327843,0.004368313559147384,9.818056968592886
6.780000000000006,-7.810379782999994,chest,-0.0017853875805676107,0.032382051664855,0.0969005744476308,0.9947655471481112,4.527871074699874e-05,4.842554151540668e-05,2.627758532103286e-06,-0.0009128708068355876,-0.001241690481917898,-0.0001468253018599192,-0.6387443242067756,0.028711804759414643,9.799249791904197,0.00154812339047132,9.820087329732528
6.800000000000006,-7.7903797829999935,chest,-0.0017653814690762985,0.03237778429731599,0.0969012212284625,0.9947656587542103,8.421308873174382e-05,3.6048571344649005e-05,5.172558429134e-06,-0.0002838881198543909,-5.527955872656706e-05,-0.0031100931430886264,-0.640588318366853,0.033521523709463034,9.79751583736851,0.003123512070233499,9.818492433651238
6.820000000000006,-7.770379782999994,chest,-0.001765938453186652,0.03239333119089803,0.09690118490923366,0.9947651551592079,8.611855356122078e-05,6.712028283950566e-05,5.21936894815056e-06,0.001004951842955395,0.0003129682820531296,-0.0029814703516878906,-0.6390165115932455,0.03771280929097322,9.806508727893938,0.0031618100528375587,9.827378988740254
6.840000000000005,-7.750379782999994,chest,-0.001768852598464381,0.032393566125614004,0.09690109419532729,0.9947651511678014,8.03721422002468e-05,6.815307042251639e-05,4.851782412718109e-06,-0.003319965346403503,-0.00019014199329757636,-0.0014995445227762208,-0.6361990280605199,0.025935796694639135,9.795984132874842,0.0036478702902821903,9.816655591411518
6.860000000000006,-7.730379782999994,chest,-0.0017704104302196536,0.03239254846849221,0.09690105092615954,0.9947651857498989,7.707847687932201e-05,6.642825008218445e-05,4.654331595688177e-06,-0.0024778146572895675,-0.0005931085308336752,-0.0012477419765846215,-0.6392364694455464,0.02769821015359051,9.792398106744871,0.0028369355377516063,9.813279326285146
6.880000000000006,-7.710379782999993,chest,-0.0017683667264338796,0.032389776371492034,0.0969011336396576,0.9947652715917835,8.060221189509775e-05,6.051112936100722e-05,4.924375816894866e-06,-0.0002742048120065368,0.0004346746937733089,-7.666497035074349e-05,-0.638013930682928,0.032395799014478054,9.794712537616123,0.00051962283053513,9.815523672126401
6.900000000000006,-7.690379782999994,chest,-0.0017731965702496267,0.03238821060824653,0.0969009766345033,0.9947653292685661,7.06999781936446e-05,5.832889782309003e-05,4.282253474929831e-06,-0.0007872797747851422,2.988271812188895e-05,0.001052574026868724,-0.6372441811249401,0.03000400500008075,9.799930729215276,0.0013147678512447501,9.820673229677867
6.920000000000005,-7.670379782999994,chest,-0.001778377544308433,0.032386376912248854,0.09690079575741259,0.9947653973401909,6.004881479881874e-05,5.5681065093793336e-05,3.566919475783692e-06,-0.0012630916735936768,-0.0006362569959933643,-0.0012700708940586516,-0.6361559547099239,0.025925831170467335,9.796643821497465,0.0019008691740325314,9.817311073441608
6.940000000000006,-7.650379782999994,chest,-0.0017757415022656268,0.03237535980853441,0.09690088966607979,0.9947657515220895,6.315335744133677e-05,3.3228038152532946e-05,3.815288077912982e-06,-0.0003499643510944964,-0.0008200200599502967,-7.52133868426705e-05,-0.6294379736176302,0.02325819497387928,9.79439844487669,0.0008947429794741199,9.814630609618899
6.960000000000006,-7.630379782999993,chest,-0.0017797543345706552,0.03235685959837015,0.09690079633552455,0.9947663553724468,5.1592505711184344e-05,-2.83975092263411e-06,3.184970446934443e-06,-0.0013211396262006064,-0.002519519803370341,0.0029647557615747116,-0.6285923849045836,0.02113781446178579,9.79736229584285,0.004108913077357959,9.817529381140824
6.980000000000006,-7.610379782999994,chest,-0.0017857085755859882,0.03234224642805287,0.09690064744900595,0.9947668344214304,3.692564685664479e-05,-3.078962436187105e-05,2.357341568171023e-06,-0.0018159935081680538,-0.0013597745296426748,6.497345452483462e-05,-0.626775368819579,0.0205535568097492,9.798133542818894,0.0022695904350711307,9.818181640943967
7.000000000000005,-7.590379782999994,chest,-0.001792755761070198,0.032339244005458984,0.09690042418759992,0.9947669411054028,2.2338014074030355e-05,-3.5403367365072214e-05,1.4257767544378908e-06,0.00018630440286127232,0.0016010962493480203,-0.0007807333378328442,-0.624389766903563,0.02253903287319875,9.80996338690496,0.0017910229130319376,9.82983988890117
7.020000000000006,-7.570379782999994,chest,-0.0018098277072955758,0.032336120632441095,0.09689986676671838,0.9947670660243565,-1.2195929798508587e-05,-3.8314935676186934e-05,-8.228417005540223e-07,-0.0009920316996218782,0.0021934788459977866,-0.00035261180372470546,-0.6337921456677456,0.021388237716598354,9.799662443179365,0.0024330662598910954,9.820159567994958
7.040000000000006,-7.550379782999993,chest,-0.0018194374967633764,0.032339621596508994,0.09689956129826825,0.9947669644406137,-3.0617019834977555e-05,-2.9479623813832845e-05,-2.019898179383972e-06,0.0007233861824573689,0.0001968175674462733,-0.0003942712129050593,-0.636750396283568,0.023215566279956964,9.7954360093179,0.000847038672760188,9.816137562316797
7.060000000000006,-7.530379782999994,chest,-0.0018140877592675224,0.03236419187511137,0.09689970450020402,0.9947661611844494,-1.522402711717774e-05,1.8418457651936393e-05,-1.1449954335773782e-06,0.00092820996775633,-0.0031041199542349435,-0.0006502238035591677,-0.6461842116048451,0.03378928925686903,9.801422191048909,0.003304531045282629,9.82275789778929
7.080000000000005,-7.510379782999994,chest,-0.0018098058342525824,0.032369319738058955,0.09689984411776657,0.9947659885382543,-5.720871673275951e-06,2.7801347102229812e-05,-5.380944387844977e-07,-0.0006708948146498951,-0.00273503568194613,7.911723436005336e-05,-0.6413596552353474,0.029363191679540726,9.802483206675896,0.0028172290589541047,9.82348621526758
7.100000000000006,-7.490379782999994,chest,-0.0018086118776963161,0.03237661968930591,0.09689985463806651,0.9947657521204133,-1.9322595044002355e-06,4.210871307286368e-05,-3.676828979060076e-07,-0.0023264429198701663,-0.0007734338526988074,-0.0014160564409288932,-0.6433257614393832,0.02976973776965352,9.81557913542072,0.0028312104174382288,9.836683792636876
7.120000000000006,-7.470379782999993,chest,-0.0017947985857164658,0.03238060800297473,0.09690029202064841,0.9947656047178689,2.6293879850314283e-05,4.737451745895349e-05,1.440016267562072e-06,-0.0010407121902007697,0.0015223537021002527,-0.0006119865496500332,-0.642878816630489,0.01648703868347287,9.800273525623762,0.00194297972045088,9.821350526906102
7.140000000000006,-7.450379782999994,chest,-0.001802834658815827,0.03238227958202081,0.09690003683766273,0.9947655606308073,1.064613182855112e-05,5.22613616558143e-05,4.2653053977659283e-07,0.0002453779194638683,-0.0025698795270868028,0.0014820489510759917,-0.6255554702624745,0.0375720578436346,9.797201080733204,0.0029767365016886787,9.817223656524577
7.1600000000000055,-7.430379782999994,chest,-0.0017850926603354977,0.032382047755642525,0.09690060134817065,0.9947655451842451,4.5862960440068434e-05,4.836063594182427e-05,2.700741919881011e-06,-0.00022413887360751307,-0.002306655906349986,0.003157502545375962,-0.6400533031231418,0.027002219689343007,9.802288857926705,0.00391672337918023,9.823200303614959
7.180000000000006,-7.410379782999994,chest,-0.0017940358187637096,0.032385015707252454,0.09690031177999711,0.9947654606841059,2.8663854367394492e-05,5.600521123105828e-05,1.5726986952735444e-06,-0.0002750282829065579,0.0027062452999061406,0.003546089259931887,-0.6318924675995164,0.018779829386475714,9.804049180158822,0.004469245262800743,9.82440945296834
7.200000000000006,-7.390379782999993,chest,-0.0017876665459890205,0.03238796748767877,0.09690051561737244,0.9947653561938237,4.189424843925593e-05,6.06495071306945e-05,2.4217827840899986e-06,0.00041439132376921956,0.001705093587622368,0.002187743919106106,-0.6307706599800327,0.02435184265128042,9.80142250218131,0.0028045120372984437,9.82172834607017
7.220000000000006,-7.3703797829999935,chest,-0.0017785674219441248,0.032389737553543685,0.09690081189976783,0.9947652860108781,6.0320906643873684e-05,6.241111349658546e-05,3.6206701148344678e-06,0.0018509117835586108,-0.0003288609499293915,0.0021925976242995007,-0.6373788235353319,0.03054655448146658,9.807205335127236,0.0028881669440993874,9.827942884552703
7.2400000000000055,-7.350379782999994,chest,-0.001777934256901963,0.03238472684534924,0.09690085683904796,0.9947654459020924,6.0607186725292195e-05,5.230892550267541e-05,3.7016725245031523e-06,0.0023204256243366554,0.00010775672533284032,0.0020343386090863223,-0.6417311594812732,0.03115754200028926,9.803658571150935,0.0030878018340482743,9.82468885274103
7.260000000000006,-7.3303797829999935,chest,-0.0017988603469578455,0.032391757218825604,0.09690015475493167,0.9947652477716535,2.038118673652889e-05,7.036702101315129e-05,1.0136114085845804e-06,0.0038768399832868707,0.0003786162492896955,0.001018358776056536,-0.6411814983528511,0.028268354669813145,9.798435145379562,0.004026200829194851,9.81943196482949
7.2800000000000065,-7.310379782999993,chest,-0.0018090499646636724,0.03239205991287557,0.0968998240082338,0.9947652516548814,1.886402505313356e-07,7.294494304010968e-05,-3.0417553098516237e-07,-0.000566984769469211,0.0023355834430951426,0.0039799219458763364,-0.634855422072618,0.02242671167763993,9.797244938385981,0.004649322579014958,9.817818125584798
7.300000000000006,-7.2903797829999935,chest,-0.0018145992284491338,0.0323896029434119,0.09689964838916768,0.9947653386567427,-1.1316309215914089e-05,6.912716769580385e-05,-1.0388084410450915e-06,0.0004396174823679275,-0.0013509790161566732,0.002394604500202806,-0.6356208824527172,0.024989672252274286,9.799980175005027,0.0027843380802788117,9.820603332811116
7.320000000000006,-7.270379782999994,chest,-0.0018247540139269328,0.03239736231493466,0.09689929470415415,0.9947651018575496,-2.9993853898346856e-05,8.654926232276594e-05,-2.3266026074608703e-06,-0.0016286807123303206,-0.0038648446676429666,-0.00023030381642189152,-0.636707184653263,0.026830989502840973,9.8040553998859,0.004200317251777961,9.824745198987028
7.340000000000006,-7.250379782999993,chest,-0.0018278328633218501,0.0324059839887132,0.09689917180581835,0.9947648273497076,-3.444152254772348e-05,0.0001043172429739947,-2.6865141022902606e-06,-0.003398519306095499,-0.0008635254201315302,-0.0005185868678850825,-0.6347036575626896,0.02441738479083866,9.799640812054147,0.003544649766148981,9.820203917785044
7.3600000000000065,-7.230379782999993,chest,-0.0018265685348774667,0.03241431732846875,0.09689920933752867,0.9947645545098994,-3.031451915447292e-05,0.00012066919862441239,-2.4470896717865287e-06,7.322931550514909e-05,-0.0002899527855602876,-0.0008125238612456846,-0.6373568994208566,0.022174741000427368,9.798766641359142,0.0008658118592379752,9.819498114882986
7.380000000000006,-7.210379782999993,chest,-0.0018273396358054524,0.03242233292550626,0.09689918219975485,0.9947642945173203,-3.029443054280989e-05,0.00013678285375484656,-2.4718905740073183e-06,0.00147810648931614,-0.0011129965328730614,-0.0007631096970190151,-0.640988841576942,0.02537085220715095,9.80881874753491,0.002001473578549163,9.8297729168664
7.400000000000006,-7.190379782999994,chest,-0.0018230673027567095,0.032418558235745916,0.0968993261259626,0.9947644113577142,-2.253486642711522e-05,0.00012843694084652135,-1.944725558367111e-06,0.0006710360959426381,-7.987603870604162e-05,0.0008664855801184666,-0.6364987788740512,0.03193418810119383,9.811510661149448,0.0010988479804643326,9.832186529034482
7.420000000000006,-7.170379782999993,chest,-0.0018190632265734012,0.032409665419213064,0.09689947743957249,0.9947646937182332,-1.630078204239993e-05,0.00010994959151755523,-1.4708565228005455e-06,0.0005601872286027127,0.001046988100749834,0.0012467454671896273,-0.6291583035230773,0.02912201256326702,9.800733976368106,0.00172173403119042,9.820950806212398
7.440000000000007,-7.150379782999993,chest,-0.001826240713672853,0.0324073423936061,0.09689925020605493,0.9947647783839875,-3.101586840159598e-05,0.00010671416974017411,-2.412967251341769e-06,-0.0010757774525155697,0.0016016830582886092,-0.0006749785712633265,-0.6278292991358644,0.020800360318280073,9.800200877662474,0.0020440845917462226,9.820312598200687
7.460000000000006,-7.130379782999993,chest,-0.0018269796274820818,0.03239541071105787,0.096899232773393,0.9947651673627451,-3.479576987253097e-05,8.309378055404437e-05,-2.6137290149996772e-06,0.0014612191986359,-0.004102802125270991,0.0012050802731960073,-0.6314295080820433,0.026718256896386912,9.809332445682696,0.0045188898294201045,9.82967039726417
7.480000000000006,-7.110379782999994,chest,-0.0018272036301248764,0.03240333602674781,0.09689924257800976,0.9947649078697136,-3.370709171512942e-05,9.89216277171856e-05,-2.530029741709683e-06,0.0027280854857482085,-0.00347332432418719,0.003185535545467266,-0.6488400092233725,0.04024204700488648,9.798718100097245,0.005445554975388263,9.820259120058365
7.500000000000006,-7.090379782999993,chest,-0.0018038664878402993,0.03240834760694301,0.09689998934952077,0.9947647144602307,1.3645293182484863e-05,0.00010437944896790619,5.238390610173838e-07,0.0014579677540612081,-0.0005246602307880876,0.003661445837548219,-0.6307754368278968,0.02914053462158616,9.797321064018577,0.003975817394065284,9.817648743661874
